,id,Session,Block,Trial,ArrowDirection,Condition,ACC,RT,Outlier,ConditionStr
3,10,1,1,5,1,2,1,0.4793,0,Incongruent
4,10,1,1,6,2,0,1,0.39623,0,Congruent
6,10,1,1,8,2,1,1,0.41731999999999997,0,Neutral
7,10,1,1,9,2,1,1,0.55807,0,Neutral
8,10,1,1,10,1,0,1,0.40478000000000003,0,Congruent
9,10,1,1,11,2,1,1,0.37825,0,Neutral
10,10,1,1,12,2,0,1,0.45474,0,Congruent
11,10,1,1,13,1,2,1,0.39288,0,Incongruent
12,10,1,1,14,1,2,1,0.45197,0,Incongruent
13,10,1,1,15,2,0,1,0.30541999999999997,0,Congruent
14,10,1,1,16,2,2,1,0.41378000000000004,0,Incongruent
15,10,1,1,17,2,0,1,0.48755,0,Congruent
16,10,1,1,18,2,1,1,0.40941,0,Neutral
17,10,1,1,19,2,0,1,0.46895,0,Congruent
18,10,1,1,20,1,0,1,0.48776,0,Congruent
19,10,1,1,21,1,0,1,0.37490999999999997,0,Congruent
20,10,1,1,22,2,2,1,0.3453,0,Incongruent
21,10,1,1,23,1,0,1,0.36691,0,Congruent
22,10,1,1,24,2,1,1,0.28695,0,Neutral
23,10,1,1,25,1,0,1,0.3693,0,Congruent
24,10,1,1,26,1,2,0,0.27544,0,Incongruent
25,10,1,1,27,2,0,1,0.36488000000000004,0,Congruent
26,10,1,1,28,2,2,1,0.48172,0,Incongruent
27,10,1,1,29,2,2,1,0.54146,0,Incongruent
28,10,1,1,30,2,2,1,0.57299,0,Incongruent
29,10,1,1,31,2,1,1,0.38165,0,Neutral
30,10,1,1,32,2,0,1,0.3762,0,Congruent
31,10,1,1,33,1,2,1,0.43683999999999995,0,Incongruent
32,10,1,1,34,1,0,1,0.51381,0,Congruent
33,10,1,1,35,1,0,1,0.43308,0,Congruent
34,10,1,1,36,1,2,1,0.57292,0,Incongruent
35,10,1,1,37,2,1,1,0.42916000000000004,0,Neutral
36,10,1,1,38,1,0,1,0.43442,0,Congruent
37,10,1,1,39,1,1,1,0.42258,0,Neutral
38,10,1,1,40,2,1,1,0.37803000000000003,0,Neutral
39,10,1,1,41,2,1,1,0.47146000000000005,0,Neutral
40,10,1,1,42,1,2,0,0.40294,0,Incongruent
41,10,1,1,43,2,1,1,0.43405,0,Neutral
42,10,1,1,44,2,2,1,0.50127,0,Incongruent
43,10,1,1,45,2,1,1,0.36475,0,Neutral
44,10,1,1,46,2,1,1,0.38286,0,Neutral
45,10,1,1,47,1,2,1,0.44167,0,Incongruent
46,10,1,1,48,2,1,1,0.40793,0,Neutral
47,10,1,1,49,1,1,1,0.3621,0,Neutral
48,10,1,1,50,1,1,1,0.45493999999999996,0,Neutral
49,10,1,1,51,1,2,1,0.39661,0,Incongruent
50,10,1,1,52,1,0,1,0.42267,0,Congruent
51,10,1,1,53,2,2,1,0.44328,0,Incongruent
52,10,1,1,54,1,2,1,0.37506999999999996,0,Incongruent
53,10,1,1,55,2,1,1,0.36423,0,Neutral
54,10,1,1,56,2,1,1,0.44837,0,Neutral
55,10,1,1,57,2,0,1,0.45261999999999997,0,Congruent
56,10,1,1,58,1,2,1,0.39365,0,Incongruent
57,10,1,1,59,1,0,1,0.36475,0,Congruent
58,10,1,1,60,1,1,1,0.42415,0,Neutral
59,10,1,1,61,2,0,1,0.40348,0,Congruent
60,10,1,1,62,1,1,1,0.36080999999999996,0,Neutral
61,10,1,1,63,1,1,1,0.40371999999999997,0,Neutral
62,10,1,1,64,2,2,0,0.38236,0,Incongruent
63,10,1,1,65,2,1,1,0.44301,0,Neutral
64,10,1,1,66,1,1,1,0.38388,0,Neutral
66,10,1,1,68,2,1,1,0.43859,0,Neutral
67,10,1,1,69,1,0,1,0.37867,0,Congruent
68,10,1,1,70,2,0,1,0.35875,0,Congruent
69,10,1,1,71,1,0,1,0.32961,0,Congruent
70,10,1,1,72,2,0,1,0.32266,0,Congruent
71,10,1,1,73,2,0,1,0.40746,0,Congruent
72,10,1,1,74,1,1,1,0.3864,0,Neutral
73,10,1,1,75,1,0,0,0.42035,0,Congruent
74,10,1,1,76,2,2,1,0.40163000000000004,0,Incongruent
75,10,1,1,77,1,1,1,0.42256000000000005,0,Neutral
76,10,1,1,78,1,1,1,0.45876000000000006,0,Neutral
77,10,1,1,79,1,0,1,0.39851,0,Congruent
78,10,1,1,80,2,0,1,0.37274,0,Congruent
79,10,1,1,81,1,1,1,0.39024000000000003,0,Neutral
80,10,1,1,82,1,1,1,0.41889,0,Neutral
81,10,1,1,83,1,2,0,0.52689,0,Incongruent
82,10,1,1,84,1,0,1,0.44631000000000004,0,Congruent
83,10,1,1,85,2,1,1,0.42612,0,Neutral
84,10,1,1,86,1,1,1,0.36761,0,Neutral
85,10,1,1,87,1,2,1,0.43456999999999996,0,Incongruent
86,10,1,1,88,2,0,1,0.35477,0,Congruent
87,10,1,1,89,1,1,1,0.3391,0,Neutral
88,10,1,1,90,2,1,1,0.35641,0,Neutral
89,10,1,1,91,1,2,0,0.38538,0,Incongruent
90,10,1,1,92,2,2,1,0.51698,0,Incongruent
91,10,1,1,93,1,2,1,0.51381,0,Incongruent
92,10,1,1,94,2,2,1,0.54599,0,Incongruent
93,10,1,1,95,2,2,0,0.37012,0,Incongruent
95,10,1,1,97,2,1,1,0.43061000000000005,0,Neutral
96,10,1,1,98,2,0,1,0.46679,0,Congruent
98,10,1,1,100,2,0,1,0.39511,0,Congruent
99,10,1,1,101,2,0,1,0.48022,0,Congruent
100,10,1,1,102,2,2,1,0.56428,0,Incongruent
101,10,1,1,103,2,2,1,0.39633,0,Incongruent
102,10,1,1,104,2,2,1,0.43188999999999994,0,Incongruent
103,10,1,1,105,2,0,1,0.3807,0,Congruent
104,10,1,1,106,1,0,1,0.5845899999999999,0,Congruent
105,10,1,1,107,2,0,1,0.45583999999999997,0,Congruent
106,10,1,1,108,1,0,1,0.44548000000000004,0,Congruent
107,10,1,1,109,2,0,1,0.44288,0,Congruent
108,10,1,1,110,1,2,1,0.44787,0,Incongruent
109,10,1,1,111,2,1,1,0.34899,0,Neutral
110,10,1,1,112,2,0,1,0.39860999999999996,0,Congruent
111,10,1,1,113,1,0,1,0.35429,0,Congruent
112,10,1,1,114,1,1,1,0.39905999999999997,0,Neutral
113,10,1,1,115,1,2,1,0.41134,0,Incongruent
114,10,1,1,116,2,1,1,0.38192,0,Neutral
115,10,1,1,117,2,2,1,0.51463,0,Incongruent
116,10,1,1,118,2,2,0,0.43327,0,Incongruent
117,10,1,1,119,1,2,1,0.38959,0,Incongruent
118,10,1,1,120,1,0,1,0.45608999999999994,0,Congruent
119,10,1,1,121,2,2,1,0.43033000000000005,0,Incongruent
120,10,1,1,122,1,1,1,0.40471999999999997,0,Neutral
123,10,1,1,125,1,1,1,0.42576,0,Neutral
124,10,1,1,126,1,0,1,0.40699,0,Congruent
125,10,1,1,127,2,0,0,0.27496,0,Congruent
126,10,1,1,128,1,1,1,0.4206,0,Neutral
127,10,1,1,129,1,1,1,0.36188000000000003,0,Neutral
128,10,1,1,130,2,2,1,0.40338,0,Incongruent
129,10,1,1,131,1,0,1,0.34463,0,Congruent
130,10,1,1,132,2,0,1,0.34576,0,Congruent
131,10,1,1,133,1,1,1,0.40658,0,Neutral
132,10,1,1,134,2,1,1,0.33805999999999997,0,Neutral
134,10,1,1,136,1,1,1,0.5243,0,Neutral
135,10,1,1,137,2,1,1,0.41222,0,Neutral
136,10,1,1,138,1,0,1,0.3929,0,Congruent
137,10,1,1,139,1,2,1,0.48426,0,Incongruent
138,10,1,1,140,1,2,1,0.4256,0,Incongruent
139,10,1,1,141,1,1,1,0.3978,0,Neutral
140,10,1,1,142,1,2,1,0.50539,0,Incongruent
141,10,1,1,143,2,2,1,0.5467,0,Incongruent
142,10,1,1,144,1,0,1,0.41848,0,Congruent
144,10,1,2,2,1,1,1,0.42518999999999996,0,Neutral
145,10,1,2,3,1,1,1,0.40828000000000003,0,Neutral
146,10,1,2,4,1,2,0,0.45265,0,Incongruent
147,10,1,2,5,2,1,1,0.43468,0,Neutral
148,10,1,2,6,2,0,1,0.42117,0,Congruent
149,10,1,2,7,2,2,1,0.57724,0,Incongruent
150,10,1,2,8,1,0,1,0.44953999999999994,0,Congruent
151,10,1,2,9,2,2,1,0.38240999999999997,0,Incongruent
152,10,1,2,10,1,2,1,0.39384,0,Incongruent
153,10,1,2,11,2,0,1,0.37432,0,Congruent
154,10,1,2,12,2,0,1,0.42517,0,Congruent
155,10,1,2,13,1,1,0,0.42152,0,Neutral
156,10,1,2,14,1,0,1,0.46524,0,Congruent
157,10,1,2,15,2,2,1,0.44083999999999995,0,Incongruent
158,10,1,2,16,1,1,1,0.46876,0,Neutral
160,10,1,2,18,2,1,1,0.41379,0,Neutral
161,10,1,2,19,2,2,1,0.52055,0,Incongruent
162,10,1,2,20,2,0,1,0.37493000000000004,0,Congruent
163,10,1,2,21,1,0,1,0.4293,0,Congruent
164,10,1,2,22,1,0,1,0.42463999999999996,0,Congruent
166,10,1,2,24,1,1,1,0.43692,0,Neutral
167,10,1,2,25,1,2,0,0.41036000000000006,0,Incongruent
168,10,1,2,26,2,2,1,0.43137,0,Incongruent
169,10,1,2,27,2,2,1,0.48331,0,Incongruent
170,10,1,2,28,1,0,1,0.37732,0,Congruent
171,10,1,2,29,1,0,1,0.48562,0,Congruent
172,10,1,2,30,2,0,1,0.40255,0,Congruent
173,10,1,2,31,1,2,1,0.37543000000000004,0,Incongruent
174,10,1,2,32,1,0,1,0.44376000000000004,0,Congruent
175,10,1,2,33,1,1,1,0.45783,0,Neutral
176,10,1,2,34,2,1,1,0.39649,0,Neutral
177,10,1,2,35,1,2,1,0.40733,0,Incongruent
178,10,1,2,36,2,2,1,0.42857,0,Incongruent
179,10,1,2,37,2,1,1,0.4408,0,Neutral
180,10,1,2,38,1,1,1,0.34206,0,Neutral
181,10,1,2,39,2,2,1,0.33755999999999997,0,Incongruent
182,10,1,2,40,2,1,1,0.48228999999999994,0,Neutral
183,10,1,2,41,2,1,1,0.45642,0,Neutral
184,10,1,2,42,1,1,1,0.38906999999999997,0,Neutral
185,10,1,2,43,2,0,1,0.34075,0,Congruent
186,10,1,2,44,1,0,1,0.32326,0,Congruent
187,10,1,2,45,1,1,1,0.51932,0,Neutral
188,10,1,2,46,1,1,1,0.46211,0,Neutral
189,10,1,2,47,2,0,1,0.42701999999999996,0,Congruent
190,10,1,2,48,2,0,1,0.4871,0,Congruent
191,10,1,2,49,1,2,1,0.41428999999999994,0,Incongruent
192,10,1,2,50,1,0,1,0.46679,0,Congruent
193,10,1,2,51,2,0,1,0.36798000000000003,0,Congruent
194,10,1,2,52,1,2,1,0.4113,0,Incongruent
195,10,1,2,53,2,2,1,0.39188,0,Incongruent
196,10,1,2,54,2,1,1,0.47457,0,Neutral
197,10,1,2,55,2,2,1,0.55432,0,Incongruent
198,10,1,2,56,2,0,1,0.35285,0,Congruent
199,10,1,2,57,2,0,1,0.34581,0,Congruent
200,10,1,2,58,1,0,1,0.42418999999999996,0,Congruent
201,10,1,2,59,1,2,0,0.43526000000000004,0,Incongruent
202,10,1,2,60,2,0,1,0.35901,0,Congruent
203,10,1,2,61,2,2,0,0.4333,0,Incongruent
204,10,1,2,62,2,1,1,0.36544,0,Neutral
205,10,1,2,63,1,1,1,0.38452,0,Neutral
206,10,1,2,64,1,1,1,0.44495,0,Neutral
207,10,1,2,65,2,1,1,0.37925,0,Neutral
208,10,1,2,66,1,0,1,0.34929,0,Congruent
209,10,1,2,67,2,0,1,0.41547,0,Congruent
210,10,1,2,68,2,1,1,0.43773,0,Neutral
211,10,1,2,69,1,1,1,0.36269,0,Neutral
212,10,1,2,70,1,2,0,0.29302,0,Incongruent
213,10,1,2,71,1,2,1,0.46221999999999996,0,Incongruent
215,10,1,2,73,1,1,1,0.42696999999999996,0,Neutral
216,10,1,2,74,1,0,1,0.36212,0,Congruent
217,10,1,2,75,2,2,1,0.41818,0,Incongruent
218,10,1,2,76,1,1,1,0.28134000000000003,0,Neutral
219,10,1,2,77,2,0,1,0.38449,0,Congruent
220,10,1,2,78,2,0,1,0.41258,0,Congruent
221,10,1,2,79,1,0,1,0.35431999999999997,0,Congruent
222,10,1,2,80,2,1,1,0.36453,0,Neutral
223,10,1,2,81,2,2,1,0.39043,0,Incongruent
224,10,1,2,82,1,1,1,0.35516,0,Neutral
225,10,1,2,83,1,2,0,0.40551,0,Incongruent
226,10,1,2,84,2,0,1,0.38568,0,Congruent
227,10,1,2,85,1,0,1,0.40625,0,Congruent
228,10,1,2,86,2,2,1,0.36141,0,Incongruent
229,10,1,2,87,2,2,1,0.41239,0,Incongruent
230,10,1,2,88,1,1,1,0.37633,0,Neutral
231,10,1,2,89,1,1,1,0.38278,0,Neutral
232,10,1,2,90,1,0,1,0.40902,0,Congruent
233,10,1,2,91,1,1,1,0.35431999999999997,0,Neutral
234,10,1,2,92,2,1,1,0.39133,0,Neutral
235,10,1,2,93,1,1,1,0.40271,0,Neutral
236,10,1,2,94,1,2,0,0.43261000000000005,0,Incongruent
237,10,1,2,95,1,0,1,0.44211999999999996,0,Congruent
238,10,1,2,96,2,0,1,0.39361,0,Congruent
239,10,1,2,97,2,0,1,0.49125,0,Congruent
241,10,1,2,99,2,0,1,0.38649,0,Congruent
242,10,1,2,100,2,0,1,0.37622,0,Congruent
243,10,1,2,101,1,2,1,0.47468,0,Incongruent
244,10,1,2,102,1,0,1,0.40047,0,Congruent
245,10,1,2,103,1,0,1,0.46893,0,Congruent
246,10,1,2,104,2,2,1,0.43323999999999996,0,Incongruent
247,10,1,2,105,2,1,1,0.45583999999999997,0,Neutral
248,10,1,2,106,2,1,1,0.38918,0,Neutral
249,10,1,2,107,2,1,1,0.33499,0,Neutral
250,10,1,2,108,1,2,1,0.37015,0,Incongruent
251,10,1,2,109,2,1,1,0.33426999999999996,0,Neutral
252,10,1,2,110,1,2,1,0.43298000000000003,0,Incongruent
253,10,1,2,111,2,2,1,0.34065,0,Incongruent
254,10,1,2,112,2,1,1,0.41539,0,Neutral
255,10,1,2,113,2,1,1,0.33398,0,Neutral
256,10,1,2,114,1,1,1,0.34144,0,Neutral
257,10,1,2,115,2,1,1,0.38415,0,Neutral
258,10,1,2,116,2,1,1,0.53346,0,Neutral
259,10,1,2,117,1,2,1,0.46743,0,Incongruent
260,10,1,2,118,2,0,1,0.37675,0,Congruent
261,10,1,2,119,1,0,1,0.3394,0,Congruent
262,10,1,2,120,1,1,1,0.43931000000000003,0,Neutral
263,10,1,2,121,2,2,1,0.34033,0,Incongruent
264,10,1,2,122,2,2,0,0.414,0,Incongruent
265,10,1,2,123,1,2,1,0.48336999999999997,0,Incongruent
266,10,1,2,124,1,2,1,0.41775,0,Incongruent
267,10,1,2,125,1,0,1,0.32463000000000003,0,Congruent
268,10,1,2,126,1,2,0,0.44703999999999994,0,Incongruent
269,10,1,2,127,2,1,1,0.3412,0,Neutral
270,10,1,2,128,1,0,1,0.42257,0,Congruent
271,10,1,2,129,2,1,1,0.37968,0,Neutral
272,10,1,2,130,2,2,1,0.41544,0,Incongruent
273,10,1,2,131,1,1,1,0.4035,0,Neutral
274,10,1,2,132,1,2,1,0.40825,0,Incongruent
275,10,1,2,133,2,0,1,0.40460999999999997,0,Congruent
276,10,1,2,134,2,2,1,0.42713,0,Incongruent
277,10,1,2,135,2,0,1,0.39646,0,Congruent
278,10,1,2,136,2,2,1,0.41556000000000004,0,Incongruent
279,10,1,2,137,1,0,1,0.41225,0,Congruent
280,10,1,2,138,2,2,1,0.40104,0,Incongruent
281,10,1,2,139,2,2,1,0.39709,0,Incongruent
282,10,1,2,140,1,2,1,0.40193,0,Incongruent
283,10,1,2,141,2,0,1,0.31775,0,Congruent
284,10,1,2,142,1,0,1,0.44,0,Congruent
285,10,1,2,143,2,1,1,0.39071999999999996,0,Neutral
286,10,1,2,144,1,1,1,0.37542,0,Neutral
288,10,1,3,2,1,1,1,0.40631,0,Neutral
289,10,1,3,3,1,2,1,0.53179,0,Incongruent
290,10,1,3,4,1,0,1,0.33149,0,Congruent
291,10,1,3,5,1,1,1,0.32456999999999997,0,Neutral
292,10,1,3,6,2,1,1,0.46205,0,Neutral
293,10,1,3,7,1,0,1,0.41213,0,Congruent
294,10,1,3,8,1,2,1,0.46493999999999996,0,Incongruent
295,10,1,3,9,1,0,1,0.38256,0,Congruent
296,10,1,3,10,2,0,1,0.45898999999999995,0,Congruent
297,10,1,3,11,1,1,1,0.37601,0,Neutral
298,10,1,3,12,1,0,1,0.43492,0,Congruent
299,10,1,3,13,2,1,1,0.41565,0,Neutral
300,10,1,3,14,2,0,1,0.43831000000000003,0,Congruent
301,10,1,3,15,2,2,1,0.42468,0,Incongruent
302,10,1,3,16,2,0,1,0.39813000000000004,0,Congruent
303,10,1,3,17,1,2,1,0.43354,0,Incongruent
304,10,1,3,18,1,2,1,0.47715,0,Incongruent
305,10,1,3,19,2,2,1,0.41245,0,Incongruent
306,10,1,3,20,1,1,1,0.40751,0,Neutral
307,10,1,3,21,1,0,1,0.40299,0,Congruent
308,10,1,3,22,1,1,1,0.43201000000000006,0,Neutral
309,10,1,3,23,1,0,1,0.43628999999999996,0,Congruent
310,10,1,3,24,1,0,1,0.44133,0,Congruent
311,10,1,3,25,1,1,1,0.42199,0,Neutral
312,10,1,3,26,1,1,1,0.49906999999999996,0,Neutral
313,10,1,3,27,1,1,1,0.44931000000000004,0,Neutral
314,10,1,3,28,1,1,1,0.39842,0,Neutral
315,10,1,3,29,1,0,1,0.44276000000000004,0,Congruent
316,10,1,3,30,1,0,1,0.42286,0,Congruent
318,10,1,3,32,2,0,1,0.49221000000000004,0,Congruent
319,10,1,3,33,2,1,1,0.41891000000000006,0,Neutral
320,10,1,3,34,2,0,1,0.41545,0,Congruent
321,10,1,3,35,1,1,1,0.51583,0,Neutral
322,10,1,3,36,2,0,1,0.42001000000000005,0,Congruent
323,10,1,3,37,1,1,1,0.37442,0,Neutral
324,10,1,3,38,1,2,1,0.42961000000000005,0,Incongruent
325,10,1,3,39,2,1,1,0.44166000000000005,0,Neutral
326,10,1,3,40,2,1,1,0.47105,0,Neutral
327,10,1,3,41,2,2,1,0.54595,0,Incongruent
328,10,1,3,42,1,1,1,0.4256,0,Neutral
329,10,1,3,43,1,1,1,0.46326000000000006,0,Neutral
330,10,1,3,44,1,0,1,0.38847,0,Congruent
331,10,1,3,45,1,1,1,0.36744,0,Neutral
332,10,1,3,46,2,1,1,0.42783999999999994,0,Neutral
333,10,1,3,47,1,0,1,0.38406,0,Congruent
334,10,1,3,48,2,1,1,0.39603,0,Neutral
335,10,1,3,49,2,0,1,0.46174,0,Congruent
336,10,1,3,50,2,2,1,0.52377,0,Incongruent
338,10,1,3,52,1,1,1,0.48578999999999994,0,Neutral
339,10,1,3,53,2,0,1,0.41218,0,Congruent
340,10,1,3,54,2,2,1,0.53637,0,Incongruent
341,10,1,3,55,2,0,1,0.39064,0,Congruent
342,10,1,3,56,2,0,1,0.40247,0,Congruent
343,10,1,3,57,2,0,1,0.40646,0,Congruent
344,10,1,3,58,1,2,1,0.49806000000000006,0,Incongruent
345,10,1,3,59,1,2,1,0.44228999999999996,0,Incongruent
346,10,1,3,60,2,1,1,0.40571999999999997,0,Neutral
347,10,1,3,61,1,1,1,0.44908000000000003,0,Neutral
348,10,1,3,62,2,1,1,0.4074,0,Neutral
349,10,1,3,63,2,1,1,0.45256,0,Neutral
350,10,1,3,64,1,2,1,0.52036,0,Incongruent
351,10,1,3,65,1,1,1,0.5462899999999999,0,Neutral
352,10,1,3,66,2,2,1,0.43233999999999995,0,Incongruent
353,10,1,3,67,1,0,1,0.46287,0,Congruent
354,10,1,3,68,2,2,1,0.40253,0,Incongruent
355,10,1,3,69,1,0,1,0.45473,0,Congruent
356,10,1,3,70,2,2,1,0.33918000000000004,0,Incongruent
357,10,1,3,71,2,2,1,0.46913,0,Incongruent
358,10,1,3,72,2,1,1,0.45009,0,Neutral
359,10,1,3,73,1,2,1,0.43299,0,Incongruent
360,10,1,3,74,1,2,1,0.41266,0,Incongruent
361,10,1,3,75,2,2,1,0.4742,0,Incongruent
362,10,1,3,76,1,2,1,0.43933999999999995,0,Incongruent
363,10,1,3,77,1,1,1,0.4119,0,Neutral
364,10,1,3,78,2,2,1,0.49646,0,Incongruent
365,10,1,3,79,1,2,1,0.45629,0,Incongruent
367,10,1,3,81,1,1,1,0.53012,0,Neutral
368,10,1,3,82,2,0,1,0.43517,0,Congruent
369,10,1,3,83,1,1,1,0.44648999999999994,0,Neutral
370,10,1,3,84,2,2,1,0.46895,0,Incongruent
371,10,1,3,85,1,0,1,0.402,0,Congruent
372,10,1,3,86,2,2,1,0.38931,0,Incongruent
373,10,1,3,87,1,0,1,0.39461999999999997,0,Congruent
374,10,1,3,88,2,0,1,0.37331,0,Congruent
375,10,1,3,89,2,0,0,0.28035,0,Congruent
376,10,1,3,90,2,1,1,0.5292100000000001,0,Neutral
377,10,1,3,91,1,1,1,0.45763000000000004,0,Neutral
378,10,1,3,92,2,0,1,0.43073999999999996,0,Congruent
379,10,1,3,93,2,0,1,0.5140899999999999,0,Congruent
380,10,1,3,94,2,2,1,0.47462,0,Incongruent
381,10,1,3,95,2,2,1,0.44795,0,Incongruent
382,10,1,3,96,1,2,1,0.49188000000000004,0,Incongruent
383,10,1,3,97,2,1,1,0.41381,0,Neutral
384,10,1,3,98,2,1,1,0.40901,0,Neutral
385,10,1,3,99,2,2,1,0.39526999999999995,0,Incongruent
386,10,1,3,100,2,2,1,0.44023999999999996,0,Incongruent
387,10,1,3,101,2,1,1,0.34719,0,Neutral
389,10,1,3,103,2,2,1,0.46473000000000003,0,Incongruent
390,10,1,3,104,2,1,1,0.39163000000000003,0,Neutral
392,10,1,3,106,2,1,1,0.39557,0,Neutral
393,10,1,3,107,2,0,1,0.36891,0,Congruent
394,10,1,3,108,1,0,1,0.46566,0,Congruent
395,10,1,3,109,1,2,1,0.51972,0,Incongruent
396,10,1,3,110,2,2,1,0.38101999999999997,0,Incongruent
397,10,1,3,111,1,2,1,0.52803,0,Incongruent
398,10,1,3,112,1,2,1,0.5444100000000001,0,Incongruent
399,10,1,3,113,1,2,1,0.52777,0,Incongruent
400,10,1,3,114,1,2,1,0.45521000000000006,0,Incongruent
401,10,1,3,115,1,1,1,0.46895,0,Neutral
402,10,1,3,116,2,0,1,0.4814,0,Congruent
403,10,1,3,117,2,0,1,0.53654,0,Congruent
404,10,1,3,118,2,0,1,0.39915,0,Congruent
405,10,1,3,119,1,1,1,0.46647,0,Neutral
406,10,1,3,120,2,1,1,0.44001999999999997,0,Neutral
407,10,1,3,121,2,1,1,0.41422,0,Neutral
408,10,1,3,122,2,0,1,0.42615,0,Congruent
409,10,1,3,123,1,0,1,0.47138,0,Congruent
410,10,1,3,124,1,2,1,0.45132,0,Incongruent
411,10,1,3,125,1,0,1,0.45668000000000003,0,Congruent
412,10,1,3,126,2,0,1,0.43832,0,Congruent
413,10,1,3,127,2,0,1,0.46871999999999997,0,Congruent
414,10,1,3,128,1,2,1,0.45776999999999995,0,Incongruent
415,10,1,3,129,2,2,1,0.43772,0,Incongruent
416,10,1,3,130,2,2,1,0.5546300000000001,0,Incongruent
417,10,1,3,131,2,2,1,0.45182,0,Incongruent
418,10,1,3,132,1,2,1,0.47284,0,Incongruent
419,10,1,3,133,1,2,0,0.33368000000000003,0,Incongruent
420,10,1,3,134,1,0,1,0.503,0,Congruent
421,10,1,3,135,2,1,1,0.41331,0,Neutral
422,10,1,3,136,1,0,0,0.37029,0,Congruent
423,10,1,3,137,2,1,1,0.43044,0,Neutral
424,10,1,3,138,2,1,1,0.37153,0,Neutral
425,10,1,3,139,1,0,1,0.43936000000000003,0,Congruent
426,10,1,3,140,2,0,1,0.40299999999999997,0,Congruent
427,10,1,3,141,2,1,1,0.40619,0,Neutral
428,10,1,3,142,1,0,1,0.44492,0,Congruent
429,10,1,3,143,1,0,1,0.42738999999999994,0,Congruent
430,10,1,3,144,2,1,1,0.52508,0,Neutral
432,10,1,4,2,2,2,1,0.43533,0,Incongruent
433,10,1,4,3,2,1,1,0.36746999999999996,0,Neutral
434,10,1,4,4,2,1,1,0.34121,0,Neutral
435,10,1,4,5,2,2,1,0.50322,0,Incongruent
436,10,1,4,6,1,0,1,0.44427,0,Congruent
437,10,1,4,7,2,1,1,0.41136000000000006,0,Neutral
438,10,1,4,8,2,1,1,0.43076000000000003,0,Neutral
439,10,1,4,9,1,2,1,0.42583999999999994,0,Incongruent
440,10,1,4,10,1,2,1,0.45537,0,Incongruent
441,10,1,4,11,1,0,1,0.37213,0,Congruent
442,10,1,4,12,2,2,1,0.42385,0,Incongruent
443,10,1,4,13,1,0,1,0.4287,0,Congruent
444,10,1,4,14,1,0,1,0.41636999999999996,0,Congruent
445,10,1,4,15,1,2,1,0.5181600000000001,0,Incongruent
446,10,1,4,16,1,1,1,0.38758000000000004,0,Neutral
447,10,1,4,17,1,0,1,0.40087,0,Congruent
448,10,1,4,18,1,2,1,0.36589,0,Incongruent
450,10,1,4,20,1,1,1,0.45025,0,Neutral
451,10,1,4,21,2,2,1,0.44708000000000003,0,Incongruent
452,10,1,4,22,2,0,1,0.40548,0,Congruent
453,10,1,4,23,2,1,1,0.41697,0,Neutral
454,10,1,4,24,1,1,1,0.5412399999999999,0,Neutral
455,10,1,4,25,1,1,1,0.39676,0,Neutral
456,10,1,4,26,1,1,1,0.34551,0,Neutral
457,10,1,4,27,1,1,1,0.35409,0,Neutral
458,10,1,4,28,1,1,1,0.295,0,Neutral
459,10,1,4,29,1,0,1,0.35936999999999997,0,Congruent
460,10,1,4,30,1,1,1,0.34757,0,Neutral
461,10,1,4,31,1,2,1,0.2708,0,Incongruent
462,10,1,4,32,2,1,1,0.33484,0,Neutral
463,10,1,4,33,2,1,1,0.34552,0,Neutral
464,10,1,4,34,2,0,1,0.47596000000000005,0,Congruent
465,10,1,4,35,2,2,1,0.36157,0,Incongruent
466,10,1,4,36,1,2,1,0.46707,0,Incongruent
467,10,1,4,37,2,0,1,0.34621999999999997,0,Congruent
468,10,1,4,38,2,0,1,0.30013,0,Congruent
469,10,1,4,39,1,1,1,0.40558,0,Neutral
470,10,1,4,40,2,1,1,0.29893000000000003,0,Neutral
471,10,1,4,41,1,0,1,0.38029,0,Congruent
472,10,1,4,42,1,1,1,0.45558999999999994,0,Neutral
473,10,1,4,43,1,0,1,0.41244,0,Congruent
474,10,1,4,44,2,0,1,0.49551999999999996,0,Congruent
475,10,1,4,45,1,2,1,0.34312,0,Incongruent
476,10,1,4,46,2,2,1,0.3283,0,Incongruent
477,10,1,4,47,2,1,1,0.43413,0,Neutral
478,10,1,4,48,2,0,1,0.47268999999999994,0,Congruent
479,10,1,4,49,2,0,1,0.42968999999999996,0,Congruent
480,10,1,4,50,2,0,1,0.41918,0,Congruent
481,10,1,4,51,2,2,1,0.54166,0,Incongruent
482,10,1,4,52,1,2,1,0.5180100000000001,0,Incongruent
483,10,1,4,53,1,2,1,0.47597,0,Incongruent
484,10,1,4,54,2,0,1,0.38611,0,Congruent
485,10,1,4,55,2,0,1,0.47716000000000003,0,Congruent
486,10,1,4,56,1,1,1,0.42100000000000004,0,Neutral
487,10,1,4,57,2,1,1,0.42717,0,Neutral
488,10,1,4,58,2,1,1,0.46087,0,Neutral
489,10,1,4,59,2,0,1,0.3772,0,Congruent
490,10,1,4,60,2,1,1,0.3733,0,Neutral
491,10,1,4,61,2,1,1,0.30551999999999996,0,Neutral
492,10,1,4,62,1,2,1,0.49308,0,Incongruent
493,10,1,4,63,1,0,1,0.5061399999999999,0,Congruent
495,10,1,4,65,1,0,1,0.35093,0,Congruent
496,10,1,4,66,1,2,1,0.3947,0,Incongruent
497,10,1,4,67,1,0,1,0.36545,0,Congruent
498,10,1,4,68,2,2,0,0.35238,0,Incongruent
499,10,1,4,69,1,0,1,0.41996999999999995,0,Congruent
500,10,1,4,70,2,2,1,0.39894,0,Incongruent
501,10,1,4,71,1,1,1,0.44356,0,Neutral
502,10,1,4,72,2,2,0,0.42618,0,Incongruent
503,10,1,4,73,2,0,1,0.37556999999999996,0,Congruent
504,10,1,4,74,1,2,1,0.45643999999999996,0,Incongruent
505,10,1,4,75,2,0,1,0.34301,0,Congruent
506,10,1,4,76,2,1,1,0.46531000000000006,0,Neutral
507,10,1,4,77,2,2,1,0.4955,0,Incongruent
508,10,1,4,78,2,1,1,0.41358,0,Neutral
509,10,1,4,79,1,0,1,0.58522,0,Congruent
511,10,1,4,81,1,1,1,0.48458,0,Neutral
512,10,1,4,82,1,2,1,0.48971000000000003,0,Incongruent
513,10,1,4,83,2,0,1,0.391,0,Congruent
514,10,1,4,84,2,2,0,0.46553999999999995,0,Incongruent
515,10,1,4,85,1,0,1,0.41518999999999995,0,Congruent
516,10,1,4,86,1,1,1,0.42148,0,Neutral
517,10,1,4,87,2,1,1,0.40884000000000004,0,Neutral
518,10,1,4,88,1,2,1,0.35921,0,Incongruent
519,10,1,4,89,1,1,1,0.39116999999999996,0,Neutral
520,10,1,4,90,1,2,1,0.37988,0,Incongruent
521,10,1,4,91,1,2,1,0.38254,0,Incongruent
522,10,1,4,92,1,0,1,0.37091,0,Congruent
523,10,1,4,93,1,2,1,0.34244,0,Incongruent
524,10,1,4,94,1,1,1,0.37919,0,Neutral
525,10,1,4,95,1,1,1,0.31745999999999996,0,Neutral
526,10,1,4,96,2,0,1,0.439,0,Congruent
527,10,1,4,97,2,2,1,0.4261,0,Incongruent
528,10,1,4,98,2,0,1,0.38614,0,Congruent
529,10,1,4,99,1,2,1,0.39574000000000004,0,Incongruent
530,10,1,4,100,2,1,1,0.37548000000000004,0,Neutral
531,10,1,4,101,2,1,1,0.47431,0,Neutral
532,10,1,4,102,1,1,1,0.39069,0,Neutral
533,10,1,4,103,1,0,1,0.45268,0,Congruent
534,10,1,4,104,2,0,1,0.43328,0,Congruent
535,10,1,4,105,2,0,1,0.37313,0,Congruent
536,10,1,4,106,2,2,1,0.47192,0,Incongruent
537,10,1,4,107,2,2,1,0.51874,0,Incongruent
538,10,1,4,108,1,0,1,0.46107,0,Congruent
539,10,1,4,109,2,0,1,0.33751,0,Congruent
540,10,1,4,110,2,2,1,0.40417,0,Incongruent
541,10,1,4,111,2,0,1,0.37729,0,Congruent
542,10,1,4,112,2,1,1,0.39719,0,Neutral
543,10,1,4,113,2,1,1,0.39253000000000005,0,Neutral
544,10,1,4,114,1,1,1,0.41947,0,Neutral
545,10,1,4,115,2,2,1,0.36130999999999996,0,Incongruent
546,10,1,4,116,1,0,1,0.37277,0,Congruent
547,10,1,4,117,1,2,1,0.56984,0,Incongruent
548,10,1,4,118,1,1,1,0.43993000000000004,0,Neutral
549,10,1,4,119,2,2,1,0.47539,0,Incongruent
551,10,1,4,121,1,0,1,0.5160399999999999,0,Congruent
552,10,1,4,122,2,1,1,0.45819,0,Neutral
553,10,1,4,123,2,1,1,0.31290999999999997,0,Neutral
554,10,1,4,124,2,0,1,0.37015,0,Congruent
555,10,1,4,125,2,2,1,0.27762,0,Incongruent
556,10,1,4,126,2,2,1,0.28492,0,Incongruent
557,10,1,4,127,1,1,0,0.32778,0,Neutral
558,10,1,4,128,1,2,1,0.57676,0,Incongruent
559,10,1,4,129,1,0,1,0.39551,0,Congruent
561,10,1,4,131,1,2,1,0.38236,0,Incongruent
562,10,1,4,132,1,1,1,0.29044000000000003,0,Neutral
563,10,1,4,133,1,0,1,0.22698000000000002,0,Congruent
564,10,1,4,134,1,0,1,0.29229,0,Congruent
565,10,1,4,135,2,1,1,0.5010600000000001,0,Neutral
566,10,1,4,136,1,0,1,0.51502,0,Congruent
567,10,1,4,137,2,1,1,0.36213,0,Neutral
568,10,1,4,138,2,0,0,0.31674,0,Congruent
569,10,1,4,139,2,2,1,0.43798000000000004,0,Incongruent
570,10,1,4,140,2,2,1,0.43643999999999994,0,Incongruent
571,10,1,4,141,1,0,1,0.49662,0,Congruent
573,10,1,4,143,2,0,1,0.2904,0,Congruent
574,10,1,4,144,2,2,0,0.33205,0,Incongruent
576,10,1,5,2,1,1,1,0.5249699999999999,0,Neutral
577,10,1,5,3,2,0,1,0.42108,0,Congruent
578,10,1,5,4,2,0,1,0.41858,0,Congruent
579,10,1,5,5,1,1,1,0.42356000000000005,0,Neutral
580,10,1,5,6,2,0,1,0.29735,0,Congruent
581,10,1,5,7,2,0,1,0.4691,0,Congruent
582,10,1,5,8,2,0,1,0.40956,0,Congruent
583,10,1,5,9,1,0,1,0.38216,0,Congruent
584,10,1,5,10,1,2,0,0.39287,0,Incongruent
585,10,1,5,11,2,0,1,0.34873000000000004,0,Congruent
586,10,1,5,12,1,0,1,0.32023,0,Congruent
587,10,1,5,13,2,1,1,0.38659,0,Neutral
588,10,1,5,14,2,1,1,0.42132,0,Neutral
589,10,1,5,15,2,2,1,0.29756,0,Incongruent
590,10,1,5,16,1,2,1,0.40223000000000003,0,Incongruent
591,10,1,5,17,1,2,0,0.31948000000000004,0,Incongruent
592,10,1,5,18,1,1,1,0.4092,0,Neutral
593,10,1,5,19,1,1,1,0.32414,0,Neutral
594,10,1,5,20,1,2,1,0.52008,0,Incongruent
595,10,1,5,21,1,0,1,0.31108,0,Congruent
596,10,1,5,22,1,1,1,0.33174000000000003,0,Neutral
597,10,1,5,23,1,0,1,0.35512,0,Congruent
598,10,1,5,24,2,1,1,0.43782,0,Neutral
599,10,1,5,25,2,1,1,0.39391,0,Neutral
600,10,1,5,26,2,1,1,0.30937,0,Neutral
601,10,1,5,27,2,1,1,0.30664,0,Neutral
602,10,1,5,28,1,0,1,0.4166,0,Congruent
603,10,1,5,29,1,0,1,0.38261999999999996,0,Congruent
604,10,1,5,30,2,2,1,0.38649,0,Incongruent
605,10,1,5,31,2,1,1,0.34267,0,Neutral
606,10,1,5,32,2,1,1,0.46698999999999996,0,Neutral
607,10,1,5,33,1,0,1,0.34923000000000004,0,Congruent
608,10,1,5,34,2,0,1,0.39131,0,Congruent
609,10,1,5,35,1,0,1,0.28398,0,Congruent
610,10,1,5,36,1,1,0,0.25267,0,Neutral
611,10,1,5,37,2,0,1,0.4455,0,Congruent
612,10,1,5,38,1,0,1,0.30657,0,Congruent
613,10,1,5,39,2,1,1,0.31566,0,Neutral
614,10,1,5,40,1,2,1,0.30999,0,Incongruent
615,10,1,5,41,1,1,1,0.41718,0,Neutral
616,10,1,5,42,2,0,1,0.28381,0,Congruent
617,10,1,5,43,1,0,1,0.30975,0,Congruent
618,10,1,5,44,2,2,1,0.32039,0,Incongruent
619,10,1,5,45,1,2,1,0.30728,0,Incongruent
620,10,1,5,46,2,2,1,0.29994,0,Incongruent
621,10,1,5,47,1,0,1,0.30905,0,Congruent
622,10,1,5,48,2,0,1,0.32789,0,Congruent
623,10,1,5,49,2,1,1,0.45778,0,Neutral
624,10,1,5,50,2,2,1,0.375,0,Incongruent
625,10,1,5,51,2,2,1,0.32118,0,Incongruent
626,10,1,5,52,1,2,1,0.5078699999999999,0,Incongruent
627,10,1,5,53,1,1,1,0.49157,0,Neutral
628,10,1,5,54,1,1,1,0.40131,0,Neutral
629,10,1,5,55,2,0,1,0.50893,0,Congruent
630,10,1,5,56,2,2,1,0.51558,0,Incongruent
631,10,1,5,57,2,1,1,0.39399999999999996,0,Neutral
632,10,1,5,58,1,0,1,0.4866,0,Congruent
633,10,1,5,59,1,1,1,0.42762,0,Neutral
634,10,1,5,60,1,0,1,0.36769,0,Congruent
635,10,1,5,61,2,2,0,0.29909,0,Incongruent
636,10,1,5,62,2,1,1,0.35708,0,Neutral
637,10,1,5,63,1,2,1,0.4829,0,Incongruent
638,10,1,5,64,2,0,1,0.29721,0,Congruent
639,10,1,5,65,1,2,1,0.28783000000000003,0,Incongruent
640,10,1,5,66,2,2,1,0.37115,0,Incongruent
641,10,1,5,67,2,2,0,0.26033,0,Incongruent
642,10,1,5,68,2,2,1,0.47695,0,Incongruent
643,10,1,5,69,1,2,1,0.32371,0,Incongruent
644,10,1,5,70,1,1,1,0.45401,0,Neutral
645,10,1,5,71,1,1,1,0.38554,0,Neutral
646,10,1,5,72,1,2,1,0.37513,0,Incongruent
647,10,1,5,73,2,2,1,0.43459,0,Incongruent
648,10,1,5,74,2,1,1,0.42202,0,Neutral
649,10,1,5,75,1,1,1,0.54652,0,Neutral
650,10,1,5,76,2,2,1,0.33928,0,Incongruent
651,10,1,5,77,2,2,1,0.35852,0,Incongruent
655,10,1,5,81,1,1,1,0.42018999999999995,0,Neutral
656,10,1,5,82,2,0,1,0.35212,0,Congruent
657,10,1,5,83,1,2,1,0.44716999999999996,0,Incongruent
658,10,1,5,84,2,0,1,0.37979,0,Congruent
659,10,1,5,85,2,0,1,0.39759,0,Congruent
660,10,1,5,86,1,2,1,0.38508000000000003,0,Incongruent
661,10,1,5,87,1,0,1,0.41357,0,Congruent
662,10,1,5,88,2,0,1,0.44117,0,Congruent
663,10,1,5,89,2,1,1,0.35707,0,Neutral
664,10,1,5,90,2,1,1,0.33676,0,Neutral
665,10,1,5,91,2,1,1,0.28348,0,Neutral
666,10,1,5,92,1,0,1,0.45321000000000006,0,Congruent
667,10,1,5,93,2,0,1,0.36971,0,Congruent
668,10,1,5,94,1,1,1,0.38175,0,Neutral
669,10,1,5,95,2,2,1,0.33642,0,Incongruent
670,10,1,5,96,2,2,0,0.2933,0,Incongruent
671,10,1,5,97,1,2,1,0.42861000000000005,0,Incongruent
672,10,1,5,98,1,2,1,0.37806,0,Incongruent
673,10,1,5,99,1,0,1,0.49256000000000005,0,Congruent
674,10,1,5,100,2,2,1,0.42773999999999995,0,Incongruent
675,10,1,5,101,2,0,1,0.42286,0,Congruent
676,10,1,5,102,2,1,1,0.48413999999999996,0,Neutral
677,10,1,5,103,2,0,1,0.33766999999999997,0,Congruent
678,10,1,5,104,1,2,1,0.4617,0,Incongruent
680,10,1,5,106,2,1,1,0.3637,0,Neutral
681,10,1,5,107,1,0,1,0.38372,0,Congruent
682,10,1,5,108,1,2,1,0.5215,0,Incongruent
683,10,1,5,109,1,0,1,0.40245,0,Congruent
684,10,1,5,110,1,2,0,0.43923999999999996,0,Incongruent
685,10,1,5,111,1,1,1,0.42666000000000004,0,Neutral
686,10,1,5,112,1,0,1,0.47001000000000004,0,Congruent
687,10,1,5,113,2,1,1,0.43746999999999997,0,Neutral
688,10,1,5,114,1,1,1,0.37676,0,Neutral
689,10,1,5,115,2,2,1,0.32492,0,Incongruent
690,10,1,5,116,2,0,1,0.40841,0,Congruent
691,10,1,5,117,1,1,1,0.36236999999999997,0,Neutral
692,10,1,5,118,2,2,1,0.36568,0,Incongruent
693,10,1,5,119,1,0,1,0.28183,0,Congruent
694,10,1,5,120,1,1,1,0.39509,0,Neutral
695,10,1,5,121,2,1,1,0.36608,0,Neutral
696,10,1,5,122,1,0,1,0.40009,0,Congruent
697,10,1,5,123,1,1,1,0.35791,0,Neutral
698,10,1,5,124,2,2,1,0.43275,0,Incongruent
699,10,1,5,125,1,2,1,0.42233000000000004,0,Incongruent
700,10,1,5,126,1,0,1,0.5692,0,Congruent
702,10,1,5,128,2,1,1,0.39375,0,Neutral
703,10,1,5,129,2,0,1,0.32475,0,Congruent
704,10,1,5,130,1,0,1,0.40673000000000004,0,Congruent
705,10,1,5,131,2,1,1,0.34676,0,Neutral
706,10,1,5,132,1,2,1,0.36696,0,Incongruent
707,10,1,5,133,2,2,1,0.35241999999999996,0,Incongruent
708,10,1,5,134,1,2,1,0.38197,0,Incongruent
709,10,1,5,135,2,2,1,0.34345,0,Incongruent
710,10,1,5,136,2,0,1,0.39314,0,Congruent
711,10,1,5,137,2,1,1,0.34884,0,Neutral
712,10,1,5,138,1,1,1,0.43983999999999995,0,Neutral
713,10,1,5,139,2,2,1,0.43711000000000005,0,Incongruent
714,10,1,5,140,2,1,1,0.40893,0,Neutral
715,10,1,5,141,2,0,1,0.35157,0,Congruent
716,10,1,5,142,1,1,1,0.40101,0,Neutral
717,10,1,5,143,2,0,1,0.27557,0,Congruent
718,10,1,5,144,1,0,1,0.40652,0,Congruent
2,11,1,1,4,1,2,1,0.49813,0,Incongruent
3,11,1,1,5,1,0,1,0.55928,0,Congruent
4,11,1,1,6,1,0,1,0.44864,0,Congruent
5,11,1,1,7,1,0,1,0.4852,0,Congruent
8,11,1,1,10,2,0,1,0.46486000000000005,0,Congruent
9,11,1,1,11,2,1,1,0.43627,0,Neutral
10,11,1,1,12,1,1,1,0.50493,0,Neutral
11,11,1,1,13,2,0,1,0.57811,0,Congruent
12,11,1,1,14,1,1,1,0.46623000000000003,0,Neutral
13,11,1,1,15,1,2,1,0.52468,0,Incongruent
14,11,1,1,16,2,1,1,0.60547,0,Neutral
15,11,1,1,17,1,0,1,0.5764100000000001,0,Congruent
16,11,1,1,18,2,0,1,0.5350699999999999,0,Congruent
18,11,1,1,20,2,2,1,0.56185,0,Incongruent
20,11,1,1,22,1,2,1,0.52864,0,Incongruent
21,11,1,1,23,1,2,1,0.51964,0,Incongruent
22,11,1,1,24,2,2,1,0.5186,0,Incongruent
23,11,1,1,25,1,0,1,0.485,0,Congruent
24,11,1,1,26,2,0,1,0.47475,0,Congruent
25,11,1,1,27,2,2,1,0.5209699999999999,0,Incongruent
26,11,1,1,28,1,0,1,0.43313999999999997,0,Congruent
27,11,1,1,29,1,2,1,0.50798,0,Incongruent
28,11,1,1,30,2,1,1,0.4578,0,Neutral
29,11,1,1,31,2,2,1,0.52874,0,Incongruent
30,11,1,1,32,2,0,1,0.45563000000000003,0,Congruent
31,11,1,1,33,1,1,1,0.43566000000000005,0,Neutral
32,11,1,1,34,1,2,1,0.44071000000000005,0,Incongruent
33,11,1,1,35,1,1,1,0.43077,0,Neutral
34,11,1,1,36,1,1,1,0.37968,0,Neutral
35,11,1,1,37,1,1,1,0.35138,0,Neutral
36,11,1,1,38,2,1,1,0.43618,0,Neutral
37,11,1,1,39,2,1,1,0.42311000000000004,0,Neutral
38,11,1,1,40,1,0,1,0.40325,0,Congruent
39,11,1,1,41,1,1,1,0.39958,0,Neutral
40,11,1,1,42,2,1,1,0.39521999999999996,0,Neutral
41,11,1,1,43,2,0,1,0.40638,0,Congruent
42,11,1,1,44,2,2,1,0.49996,0,Incongruent
43,11,1,1,45,2,0,1,0.35273000000000004,0,Congruent
44,11,1,1,46,2,0,1,0.37296999999999997,0,Congruent
45,11,1,1,47,2,0,1,0.44227,0,Congruent
46,11,1,1,48,1,0,1,0.40557,0,Congruent
47,11,1,1,49,1,0,1,0.42433000000000004,0,Congruent
48,11,1,1,50,2,2,1,0.42966000000000004,0,Incongruent
49,11,1,1,51,1,2,1,0.45831000000000005,0,Incongruent
50,11,1,1,52,2,0,1,0.38409,0,Congruent
51,11,1,1,53,2,2,1,0.5007699999999999,0,Incongruent
52,11,1,1,54,2,0,1,0.36161,0,Congruent
53,11,1,1,55,2,0,1,0.39686,0,Congruent
54,11,1,1,56,2,1,1,0.38606,0,Neutral
55,11,1,1,57,1,0,1,0.51108,0,Congruent
56,11,1,1,58,1,2,0,0.43018,0,Incongruent
57,11,1,1,59,1,0,1,0.40081999999999995,0,Congruent
59,11,1,1,61,1,1,1,0.54337,0,Neutral
60,11,1,1,62,1,2,1,0.58401,0,Incongruent
61,11,1,1,63,2,2,1,0.53594,0,Incongruent
62,11,1,1,64,1,2,1,0.48823999999999995,0,Incongruent
63,11,1,1,65,2,0,1,0.53383,0,Congruent
64,11,1,1,66,1,2,1,0.46069,0,Incongruent
65,11,1,1,67,2,0,1,0.57011,0,Congruent
66,11,1,1,68,1,1,1,0.5374899999999999,0,Neutral
68,11,1,1,70,1,1,1,0.46907,0,Neutral
69,11,1,1,71,1,1,1,0.4812,0,Neutral
71,11,1,1,73,2,2,1,0.56981,0,Incongruent
72,11,1,1,74,1,2,1,0.49776000000000004,0,Incongruent
73,11,1,1,75,1,2,1,0.54264,0,Incongruent
74,11,1,1,76,2,2,1,0.51127,0,Incongruent
75,11,1,1,77,1,1,1,0.54137,0,Neutral
76,11,1,1,78,2,2,1,0.51717,0,Incongruent
77,11,1,1,79,1,0,1,0.50785,0,Congruent
78,11,1,1,80,1,1,1,0.4824,0,Neutral
79,11,1,1,81,1,0,1,0.44971000000000005,0,Congruent
80,11,1,1,82,2,1,1,0.51254,0,Neutral
81,11,1,1,83,1,2,1,0.49235,0,Incongruent
82,11,1,1,84,2,2,1,0.48995,0,Incongruent
83,11,1,1,85,1,2,1,0.46705,0,Incongruent
84,11,1,1,86,2,1,1,0.48103999999999997,0,Neutral
85,11,1,1,87,2,1,1,0.43651999999999996,0,Neutral
86,11,1,1,88,2,0,1,0.39361,0,Congruent
87,11,1,1,89,1,0,1,0.46096000000000004,0,Congruent
88,11,1,1,90,1,1,1,0.42023999999999995,0,Neutral
89,11,1,1,91,2,1,1,0.46363999999999994,0,Neutral
90,11,1,1,92,2,2,1,0.48478000000000004,0,Incongruent
91,11,1,1,93,1,2,1,0.48327,0,Incongruent
92,11,1,1,94,1,1,1,0.41673999999999994,0,Neutral
93,11,1,1,95,1,2,1,0.5504,0,Incongruent
94,11,1,1,96,1,2,1,0.46374,0,Incongruent
95,11,1,1,97,2,1,1,0.46157,0,Neutral
96,11,1,1,98,2,1,1,0.39400999999999997,0,Neutral
97,11,1,1,99,1,0,1,0.46941000000000005,0,Congruent
98,11,1,1,100,2,0,1,0.47313,0,Congruent
99,11,1,1,101,1,1,1,0.4066,0,Neutral
100,11,1,1,102,2,1,1,0.46625,0,Neutral
101,11,1,1,103,1,2,1,0.39284,0,Incongruent
102,11,1,1,104,2,2,1,0.43623999999999996,0,Incongruent
103,11,1,1,105,2,0,1,0.49696,0,Congruent
104,11,1,1,106,1,1,1,0.4555,0,Neutral
105,11,1,1,107,1,0,1,0.40501,0,Congruent
106,11,1,1,108,1,0,1,0.44919,0,Congruent
107,11,1,1,109,1,2,1,0.51097,0,Incongruent
108,11,1,1,110,2,2,1,0.42878,0,Incongruent
109,11,1,1,111,1,2,1,0.42013,0,Incongruent
110,11,1,1,112,2,0,1,0.40075,0,Congruent
111,11,1,1,113,1,1,1,0.4171,0,Neutral
112,11,1,1,114,1,2,1,0.5180600000000001,0,Incongruent
113,11,1,1,115,2,2,1,0.49233000000000005,0,Incongruent
114,11,1,1,116,2,2,1,0.42056000000000004,0,Incongruent
115,11,1,1,117,1,0,1,0.39161999999999997,0,Congruent
116,11,1,1,118,2,0,1,0.45215,0,Congruent
117,11,1,1,119,1,0,1,0.3777,0,Congruent
118,11,1,1,120,2,2,1,0.44515,0,Incongruent
119,11,1,1,121,1,2,1,0.39437,0,Incongruent
120,11,1,1,122,1,1,1,0.52809,0,Neutral
121,11,1,1,123,1,2,1,0.5332899999999999,0,Incongruent
122,11,1,1,124,2,1,1,0.42688999999999994,0,Neutral
123,11,1,1,125,1,0,1,0.44937,0,Congruent
124,11,1,1,126,1,1,1,0.38132,0,Neutral
125,11,1,1,127,2,0,1,0.44181000000000004,0,Congruent
126,11,1,1,128,2,1,1,0.39104,0,Neutral
127,11,1,1,129,2,0,1,0.36133000000000004,0,Congruent
128,11,1,1,130,1,0,1,0.444,0,Congruent
129,11,1,1,131,1,0,1,0.33061999999999997,0,Congruent
130,11,1,1,132,2,0,1,0.42854,0,Congruent
131,11,1,1,133,1,1,1,0.4565,0,Neutral
132,11,1,1,134,2,1,1,0.36861,0,Neutral
133,11,1,1,135,2,2,1,0.48152,0,Incongruent
134,11,1,1,136,2,1,1,0.35975,0,Neutral
135,11,1,1,137,1,0,1,0.43462,0,Congruent
136,11,1,1,138,2,2,1,0.50354,0,Incongruent
137,11,1,1,139,2,1,1,0.4001,0,Neutral
138,11,1,1,140,2,2,1,0.395,0,Incongruent
139,11,1,1,141,1,1,1,0.43713,0,Neutral
140,11,1,1,142,2,1,1,0.48996000000000006,0,Neutral
141,11,1,1,143,1,0,1,0.42632,0,Congruent
142,11,1,1,144,2,1,1,0.5029100000000001,0,Neutral
144,11,1,2,2,1,0,1,0.38794,0,Congruent
145,11,1,2,3,1,2,1,0.35727,0,Incongruent
146,11,1,2,4,2,2,1,0.48200000000000004,0,Incongruent
147,11,1,2,5,1,1,1,0.36625,0,Neutral
148,11,1,2,6,2,1,1,0.43411000000000005,0,Neutral
149,11,1,2,7,2,0,1,0.42251000000000005,0,Congruent
150,11,1,2,8,1,1,1,0.41263999999999995,0,Neutral
151,11,1,2,9,1,2,1,0.49659,0,Incongruent
152,11,1,2,10,1,1,1,0.40693,0,Neutral
153,11,1,2,11,2,0,1,0.46723000000000003,0,Congruent
154,11,1,2,12,2,2,1,0.57813,0,Incongruent
155,11,1,2,13,1,2,1,0.42436999999999997,0,Incongruent
156,11,1,2,14,2,1,1,0.42212,0,Neutral
157,11,1,2,15,1,2,1,0.37733,0,Incongruent
158,11,1,2,16,2,2,1,0.39615,0,Incongruent
159,11,1,2,17,1,1,1,0.36277,0,Neutral
160,11,1,2,18,1,0,1,0.51641,0,Congruent
161,11,1,2,19,2,2,1,0.41771,0,Incongruent
162,11,1,2,20,1,0,1,0.3837,0,Congruent
163,11,1,2,21,2,0,1,0.36301,0,Congruent
164,11,1,2,22,1,1,1,0.35167,0,Neutral
165,11,1,2,23,1,1,1,0.40129000000000004,0,Neutral
166,11,1,2,24,1,2,1,0.51658,0,Incongruent
167,11,1,2,25,1,2,1,0.52407,0,Incongruent
168,11,1,2,26,2,2,1,0.3947,0,Incongruent
169,11,1,2,27,2,0,1,0.43001000000000006,0,Congruent
170,11,1,2,28,1,1,1,0.41886999999999996,0,Neutral
171,11,1,2,29,1,2,1,0.49643999999999994,0,Incongruent
172,11,1,2,30,2,1,1,0.42302,0,Neutral
173,11,1,2,31,1,1,1,0.40946,0,Neutral
174,11,1,2,32,2,2,1,0.43138999999999994,0,Incongruent
175,11,1,2,33,2,1,1,0.46028,0,Neutral
176,11,1,2,34,1,2,1,0.43408,0,Incongruent
177,11,1,2,35,1,1,1,0.36714,0,Neutral
178,11,1,2,36,1,2,1,0.50556,0,Incongruent
179,11,1,2,37,2,1,1,0.42285,0,Neutral
180,11,1,2,38,2,1,1,0.51737,0,Neutral
181,11,1,2,39,1,2,1,0.38026,0,Incongruent
182,11,1,2,40,2,0,1,0.39118,0,Congruent
183,11,1,2,41,2,0,1,0.44201,0,Congruent
184,11,1,2,42,1,1,1,0.41397,0,Neutral
185,11,1,2,43,1,2,1,0.5001800000000001,0,Incongruent
186,11,1,2,44,1,1,1,0.3532,0,Neutral
187,11,1,2,45,2,2,1,0.41218999999999995,0,Incongruent
188,11,1,2,46,2,1,1,0.42461000000000004,0,Neutral
189,11,1,2,47,1,0,1,0.36633000000000004,0,Congruent
190,11,1,2,48,1,1,1,0.33753,0,Neutral
191,11,1,2,49,2,0,1,0.40331,0,Congruent
192,11,1,2,50,2,2,1,0.5915199999999999,0,Incongruent
193,11,1,2,51,2,2,1,0.48945,0,Incongruent
194,11,1,2,52,1,0,1,0.48733999999999994,0,Congruent
195,11,1,2,53,2,0,1,0.42898000000000003,0,Congruent
196,11,1,2,54,2,0,1,0.4018,0,Congruent
197,11,1,2,55,1,2,1,0.5325,0,Incongruent
198,11,1,2,56,2,1,1,0.4689,0,Neutral
199,11,1,2,57,2,1,1,0.48253999999999997,0,Neutral
200,11,1,2,58,2,1,1,0.46338,0,Neutral
201,11,1,2,59,1,2,1,0.46926,0,Incongruent
202,11,1,2,60,1,2,1,0.45871000000000006,0,Incongruent
203,11,1,2,61,1,2,1,0.49738000000000004,0,Incongruent
204,11,1,2,62,2,1,1,0.43035,0,Neutral
205,11,1,2,63,1,1,1,0.39732,0,Neutral
206,11,1,2,64,1,1,1,0.41589,0,Neutral
207,11,1,2,65,2,1,1,0.49272,0,Neutral
208,11,1,2,66,2,1,1,0.44371000000000005,0,Neutral
209,11,1,2,67,1,0,1,0.44054,0,Congruent
210,11,1,2,68,2,2,1,0.43692,0,Incongruent
211,11,1,2,69,2,1,1,0.44106000000000006,0,Neutral
212,11,1,2,70,2,2,1,0.46316999999999997,0,Incongruent
213,11,1,2,71,2,0,1,0.36483000000000004,0,Congruent
214,11,1,2,72,2,0,1,0.39266,0,Congruent
215,11,1,2,73,2,1,1,0.37886,0,Neutral
216,11,1,2,74,1,0,1,0.4226,0,Congruent
217,11,1,2,75,1,0,1,0.33185,0,Congruent
218,11,1,2,76,2,2,1,0.45421999999999996,0,Incongruent
219,11,1,2,77,2,2,1,0.5313100000000001,0,Incongruent
220,11,1,2,78,1,1,1,0.40998999999999997,0,Neutral
221,11,1,2,79,1,0,1,0.34183,0,Congruent
222,11,1,2,80,1,1,1,0.34553,0,Neutral
223,11,1,2,81,2,0,1,0.45022,0,Congruent
224,11,1,2,82,1,0,1,0.33668000000000003,0,Congruent
225,11,1,2,83,2,2,1,0.47489,0,Incongruent
226,11,1,2,84,1,0,1,0.39363000000000004,0,Congruent
227,11,1,2,85,2,2,0,0.42908,0,Incongruent
228,11,1,2,86,2,1,1,0.49788999999999994,0,Neutral
229,11,1,2,87,2,1,1,0.41648,0,Neutral
230,11,1,2,88,1,1,1,0.40558,0,Neutral
231,11,1,2,89,1,0,1,0.38556999999999997,0,Congruent
232,11,1,2,90,2,0,1,0.44497,0,Congruent
233,11,1,2,91,1,2,1,0.36252,0,Incongruent
234,11,1,2,92,1,0,1,0.39796,0,Congruent
235,11,1,2,93,2,2,1,0.43323,0,Incongruent
236,11,1,2,94,2,2,1,0.50471,0,Incongruent
237,11,1,2,95,1,2,1,0.50834,0,Incongruent
238,11,1,2,96,2,1,1,0.41148,0,Neutral
239,11,1,2,97,2,2,1,0.50441,0,Incongruent
240,11,1,2,98,2,0,1,0.41331999999999997,0,Congruent
241,11,1,2,99,1,1,1,0.45064,0,Neutral
242,11,1,2,100,1,0,1,0.43237,0,Congruent
243,11,1,2,101,1,0,1,0.38021,0,Congruent
244,11,1,2,102,2,0,1,0.52065,0,Congruent
245,11,1,2,103,2,2,1,0.4731,0,Incongruent
246,11,1,2,104,2,1,1,0.41343,0,Neutral
247,11,1,2,105,2,2,0,0.40817,0,Incongruent
248,11,1,2,106,1,0,1,0.42058999999999996,0,Congruent
249,11,1,2,107,1,1,1,0.44083999999999995,0,Neutral
250,11,1,2,108,1,0,1,0.50347,0,Congruent
251,11,1,2,109,2,0,1,0.58914,0,Congruent
252,11,1,2,110,2,2,1,0.49353,0,Incongruent
253,11,1,2,111,1,1,1,0.47761000000000003,0,Neutral
254,11,1,2,112,2,1,1,0.45781000000000005,0,Neutral
255,11,1,2,113,2,2,1,0.45606,0,Incongruent
256,11,1,2,114,2,0,1,0.4599,0,Congruent
257,11,1,2,115,2,0,1,0.44243999999999994,0,Congruent
258,11,1,2,116,1,2,0,0.39857,0,Incongruent
259,11,1,2,117,1,0,1,0.54062,0,Congruent
260,11,1,2,118,1,2,1,0.58609,0,Incongruent
261,11,1,2,119,1,0,1,0.45102,0,Congruent
262,11,1,2,120,2,0,1,0.49631000000000003,0,Congruent
263,11,1,2,121,2,0,1,0.51907,0,Congruent
264,11,1,2,122,1,0,1,0.57693,0,Congruent
265,11,1,2,123,1,2,1,0.53452,0,Incongruent
266,11,1,2,124,1,1,1,0.49294,0,Neutral
267,11,1,2,125,2,0,1,0.47595,0,Congruent
268,11,1,2,126,2,1,1,0.46558999999999995,0,Neutral
269,11,1,2,127,1,0,1,0.43959,0,Congruent
270,11,1,2,128,1,0,1,0.39735,0,Congruent
271,11,1,2,129,2,2,1,0.44136000000000003,0,Incongruent
272,11,1,2,130,1,2,1,0.43815,0,Incongruent
273,11,1,2,131,2,0,1,0.44301,0,Congruent
274,11,1,2,132,2,2,1,0.53447,0,Incongruent
275,11,1,2,133,1,2,1,0.41686000000000006,0,Incongruent
276,11,1,2,134,1,2,1,0.52246,0,Incongruent
277,11,1,2,135,2,1,1,0.43349,0,Neutral
278,11,1,2,136,1,1,1,0.48575,0,Neutral
279,11,1,2,137,1,0,1,0.43704,0,Congruent
280,11,1,2,138,1,0,1,0.51305,0,Congruent
281,11,1,2,139,1,1,1,0.40968000000000004,0,Neutral
282,11,1,2,140,2,0,1,0.50868,0,Congruent
283,11,1,2,141,1,1,1,0.43448000000000003,0,Neutral
284,11,1,2,142,2,1,1,0.41478999999999994,0,Neutral
285,11,1,2,143,2,1,1,0.43559,0,Neutral
286,11,1,2,144,2,0,1,0.40186,0,Congruent
287,11,1,3,1,2,2,1,0.54706,0,Incongruent
288,11,1,3,2,1,2,1,0.40376999999999996,0,Incongruent
289,11,1,3,3,2,1,1,0.44135,0,Neutral
290,11,1,3,4,1,0,1,0.43841,0,Congruent
291,11,1,3,5,1,0,1,0.45128999999999997,0,Congruent
292,11,1,3,6,2,0,1,0.43106000000000005,0,Congruent
293,11,1,3,7,1,2,1,0.54006,0,Incongruent
294,11,1,3,8,1,1,1,0.43404,0,Neutral
295,11,1,3,9,1,1,1,0.36132,0,Neutral
296,11,1,3,10,2,2,1,0.45371999999999996,0,Incongruent
297,11,1,3,11,1,2,1,0.52859,0,Incongruent
298,11,1,3,12,1,1,1,0.41539,0,Neutral
299,11,1,3,13,2,2,1,0.41873,0,Incongruent
300,11,1,3,14,1,2,1,0.32834,0,Incongruent
301,11,1,3,15,2,2,1,0.45009,0,Incongruent
302,11,1,3,16,1,1,1,0.39908000000000005,0,Neutral
303,11,1,3,17,1,0,1,0.44273999999999997,0,Congruent
304,11,1,3,18,2,0,1,0.48045,0,Congruent
306,11,1,3,20,2,2,1,0.48356000000000005,0,Incongruent
307,11,1,3,21,1,2,1,0.44787,0,Incongruent
308,11,1,3,22,1,1,1,0.46226999999999996,0,Neutral
309,11,1,3,23,1,0,1,0.5391,0,Congruent
310,11,1,3,24,2,1,1,0.44948999999999995,0,Neutral
311,11,1,3,25,1,2,1,0.49509,0,Incongruent
312,11,1,3,26,2,2,1,0.41498,0,Incongruent
313,11,1,3,27,2,2,1,0.40993,0,Incongruent
314,11,1,3,28,2,2,1,0.43815,0,Incongruent
315,11,1,3,29,2,1,1,0.45907,0,Neutral
316,11,1,3,30,1,1,1,0.43478999999999995,0,Neutral
317,11,1,3,31,1,2,1,0.46248999999999996,0,Incongruent
318,11,1,3,32,2,1,1,0.42695,0,Neutral
319,11,1,3,33,2,1,1,0.46603,0,Neutral
320,11,1,3,34,2,1,1,0.43058,0,Neutral
321,11,1,3,35,1,2,1,0.45928,0,Incongruent
322,11,1,3,36,1,2,1,0.51242,0,Incongruent
323,11,1,3,37,2,1,1,0.43816000000000005,0,Neutral
324,11,1,3,38,1,2,1,0.49926000000000004,0,Incongruent
325,11,1,3,39,2,0,1,0.4337,0,Congruent
326,11,1,3,40,1,0,1,0.3424,0,Congruent
327,11,1,3,41,2,0,1,0.47644,0,Congruent
328,11,1,3,42,2,0,1,0.45783999999999997,0,Congruent
329,11,1,3,43,1,0,1,0.46083999999999997,0,Congruent
330,11,1,3,44,1,2,1,0.33876,0,Incongruent
331,11,1,3,45,1,2,1,0.38881,0,Incongruent
332,11,1,3,46,2,1,1,0.48888000000000004,0,Neutral
333,11,1,3,47,2,0,1,0.41608999999999996,0,Congruent
334,11,1,3,48,2,2,1,0.5664600000000001,0,Incongruent
335,11,1,3,49,2,1,1,0.44227,0,Neutral
336,11,1,3,50,2,2,1,0.56717,0,Incongruent
337,11,1,3,51,1,1,1,0.45648,0,Neutral
338,11,1,3,52,1,2,1,0.49323,0,Incongruent
339,11,1,3,53,2,2,1,0.45445,0,Incongruent
340,11,1,3,54,2,1,1,0.41978000000000004,0,Neutral
341,11,1,3,55,2,2,1,0.49317,0,Incongruent
342,11,1,3,56,2,0,1,0.46076999999999996,0,Congruent
343,11,1,3,57,1,2,1,0.44132,0,Incongruent
344,11,1,3,58,1,0,1,0.38268,0,Congruent
345,11,1,3,59,1,0,1,0.41847,0,Congruent
346,11,1,3,60,1,1,1,0.35935,0,Neutral
347,11,1,3,61,2,0,1,0.43438999999999994,0,Congruent
348,11,1,3,62,2,1,1,0.39053000000000004,0,Neutral
349,11,1,3,63,2,1,1,0.38700999999999997,0,Neutral
350,11,1,3,64,2,0,1,0.45288999999999996,0,Congruent
351,11,1,3,65,2,1,1,0.40557,0,Neutral
352,11,1,3,66,2,0,1,0.36757,0,Congruent
353,11,1,3,67,1,0,1,0.41065,0,Congruent
354,11,1,3,68,1,0,1,0.34244,0,Congruent
355,11,1,3,69,2,1,1,0.45643,0,Neutral
356,11,1,3,70,2,2,1,0.44688999999999995,0,Incongruent
357,11,1,3,71,1,1,1,0.41911000000000004,0,Neutral
358,11,1,3,72,1,1,1,0.40265,0,Neutral
359,11,1,3,73,2,1,1,0.46356,0,Neutral
360,11,1,3,74,2,0,1,0.4258,0,Congruent
361,11,1,3,75,1,2,1,0.46283,0,Incongruent
362,11,1,3,76,2,0,1,0.42308,0,Congruent
363,11,1,3,77,2,1,1,0.4096,0,Neutral
364,11,1,3,78,2,2,1,0.44683999999999996,0,Incongruent
365,11,1,3,79,2,1,1,0.38753000000000004,0,Neutral
366,11,1,3,80,1,0,1,0.59031,0,Congruent
368,11,1,3,82,1,2,1,0.44921000000000005,0,Incongruent
369,11,1,3,83,2,1,1,0.44748000000000004,0,Neutral
370,11,1,3,84,2,0,1,0.41956000000000004,0,Congruent
371,11,1,3,85,2,2,1,0.52046,0,Incongruent
372,11,1,3,86,1,1,1,0.48644,0,Neutral
373,11,1,3,87,1,2,1,0.38952,0,Incongruent
374,11,1,3,88,2,0,1,0.44963000000000003,0,Congruent
375,11,1,3,89,2,1,1,0.40933,0,Neutral
376,11,1,3,90,1,1,1,0.45836000000000005,0,Neutral
377,11,1,3,91,1,0,1,0.39313000000000003,0,Congruent
378,11,1,3,92,1,1,1,0.36296,0,Neutral
379,11,1,3,93,2,0,1,0.39023,0,Congruent
380,11,1,3,94,2,1,1,0.4017,0,Neutral
381,11,1,3,95,2,2,1,0.47936999999999996,0,Incongruent
382,11,1,3,96,1,0,1,0.46873000000000004,0,Congruent
383,11,1,3,97,2,1,1,0.41713999999999996,0,Neutral
384,11,1,3,98,1,1,1,0.42988000000000004,0,Neutral
385,11,1,3,99,1,1,1,0.44264,0,Neutral
386,11,1,3,100,2,2,1,0.42483999999999994,0,Incongruent
387,11,1,3,101,1,1,1,0.35975999999999997,0,Neutral
388,11,1,3,102,1,0,1,0.44058,0,Congruent
389,11,1,3,103,1,2,1,0.35720999999999997,0,Incongruent
390,11,1,3,104,2,0,0,0.43295,0,Congruent
391,11,1,3,105,1,0,1,0.41371,0,Congruent
392,11,1,3,106,2,2,1,0.45815,0,Incongruent
393,11,1,3,107,2,2,1,0.50292,0,Incongruent
394,11,1,3,108,2,0,1,0.39669,0,Congruent
395,11,1,3,109,1,0,1,0.50574,0,Congruent
396,11,1,3,110,1,1,1,0.46311,0,Neutral
397,11,1,3,111,1,1,1,0.41373999999999994,0,Neutral
398,11,1,3,112,2,0,1,0.43415,0,Congruent
399,11,1,3,113,1,0,1,0.38388,0,Congruent
400,11,1,3,114,2,0,1,0.39515,0,Congruent
401,11,1,3,115,1,1,1,0.35115999999999997,0,Neutral
402,11,1,3,116,1,2,1,0.5053300000000001,0,Incongruent
403,11,1,3,117,1,0,1,0.41677,0,Congruent
404,11,1,3,118,1,0,1,0.37198000000000003,0,Congruent
405,11,1,3,119,2,0,1,0.44733,0,Congruent
406,11,1,3,120,2,2,1,0.41393,0,Incongruent
407,11,1,3,121,2,0,1,0.39213000000000003,0,Congruent
408,11,1,3,122,1,0,1,0.5189199999999999,0,Congruent
409,11,1,3,123,1,2,1,0.56258,0,Incongruent
410,11,1,3,124,1,1,1,0.39559,0,Neutral
411,11,1,3,125,1,1,1,0.33566999999999997,0,Neutral
412,11,1,3,126,1,0,1,0.40165,0,Congruent
413,11,1,3,127,1,2,1,0.55771,0,Incongruent
414,11,1,3,128,2,1,1,0.43968,0,Neutral
415,11,1,3,129,1,1,1,0.4268,0,Neutral
416,11,1,3,130,2,2,1,0.5042,0,Incongruent
417,11,1,3,131,2,0,1,0.46153,0,Congruent
418,11,1,3,132,2,1,0,0.5404899999999999,0,Neutral
419,11,1,3,133,1,0,1,0.40312,0,Congruent
420,11,1,3,134,1,1,1,0.39046,0,Neutral
421,11,1,3,135,1,0,1,0.42643000000000003,0,Congruent
422,11,1,3,136,1,2,1,0.53795,0,Incongruent
423,11,1,3,137,2,1,1,0.47003999999999996,0,Neutral
424,11,1,3,138,1,2,1,0.50815,0,Incongruent
425,11,1,3,139,2,2,1,0.49813999999999997,0,Incongruent
426,11,1,3,140,1,2,1,0.5131899999999999,0,Incongruent
427,11,1,3,141,1,0,1,0.47195,0,Congruent
428,11,1,3,142,1,1,1,0.53309,0,Neutral
429,11,1,3,143,2,0,1,0.44443999999999995,0,Congruent
431,11,1,4,1,1,2,1,0.56165,0,Incongruent
432,11,1,4,2,2,1,1,0.43781000000000003,0,Neutral
433,11,1,4,3,1,2,1,0.43662,0,Incongruent
434,11,1,4,4,2,2,1,0.47272,0,Incongruent
435,11,1,4,5,2,0,1,0.47913,0,Congruent
436,11,1,4,6,2,1,1,0.43738999999999995,0,Neutral
437,11,1,4,7,2,2,1,0.52295,0,Incongruent
438,11,1,4,8,1,0,1,0.42486999999999997,0,Congruent
439,11,1,4,9,2,0,1,0.4612,0,Congruent
440,11,1,4,10,1,2,1,0.38736,0,Incongruent
441,11,1,4,11,1,0,1,0.46302,0,Congruent
442,11,1,4,12,2,2,1,0.50079,0,Incongruent
443,11,1,4,13,2,2,1,0.46512,0,Incongruent
444,11,1,4,14,2,2,1,0.48848,0,Incongruent
445,11,1,4,15,2,2,1,0.3823,0,Incongruent
446,11,1,4,16,1,1,1,0.49008999999999997,0,Neutral
447,11,1,4,17,1,1,1,0.46446000000000004,0,Neutral
448,11,1,4,18,1,1,1,0.38054,0,Neutral
449,11,1,4,19,2,0,1,0.46493,0,Congruent
450,11,1,4,20,1,1,0,0.37758,0,Neutral
451,11,1,4,21,1,0,1,0.4028,0,Congruent
452,11,1,4,22,2,1,1,0.45297,0,Neutral
453,11,1,4,23,1,1,1,0.38635,0,Neutral
454,11,1,4,24,2,2,1,0.48863999999999996,0,Incongruent
455,11,1,4,25,1,0,1,0.35817,0,Congruent
456,11,1,4,26,2,0,1,0.39893,0,Congruent
457,11,1,4,27,2,2,1,0.49331,0,Incongruent
458,11,1,4,28,1,2,1,0.47452,0,Incongruent
459,11,1,4,29,1,1,1,0.47545,0,Neutral
460,11,1,4,30,1,1,1,0.44023,0,Neutral
461,11,1,4,31,2,1,1,0.51477,0,Neutral
462,11,1,4,32,2,2,1,0.57753,0,Incongruent
463,11,1,4,33,2,1,1,0.41891000000000006,0,Neutral
464,11,1,4,34,1,1,1,0.46208,0,Neutral
465,11,1,4,35,1,0,1,0.34914,0,Congruent
466,11,1,4,36,2,2,1,0.43836,0,Incongruent
467,11,1,4,37,1,0,1,0.42794,0,Congruent
468,11,1,4,38,2,0,1,0.44064,0,Congruent
469,11,1,4,39,1,1,1,0.41362,0,Neutral
470,11,1,4,40,1,1,1,0.44183999999999996,0,Neutral
471,11,1,4,41,2,0,1,0.46518000000000004,0,Congruent
472,11,1,4,42,2,2,1,0.58812,0,Incongruent
473,11,1,4,43,1,0,1,0.42927,0,Congruent
474,11,1,4,44,1,2,1,0.53169,0,Incongruent
475,11,1,4,45,2,0,1,0.5299,0,Congruent
476,11,1,4,46,1,1,1,0.48858999999999997,0,Neutral
477,11,1,4,47,1,1,1,0.39954,0,Neutral
478,11,1,4,48,1,2,1,0.3644,0,Incongruent
479,11,1,4,49,1,2,1,0.42426,0,Incongruent
480,11,1,4,50,1,2,1,0.49133000000000004,0,Incongruent
481,11,1,4,51,2,2,1,0.47343999999999997,0,Incongruent
482,11,1,4,52,2,0,1,0.50213,0,Congruent
483,11,1,4,53,1,1,1,0.46823000000000004,0,Neutral
484,11,1,4,54,2,0,1,0.43367,0,Congruent
485,11,1,4,55,2,1,1,0.47111000000000003,0,Neutral
486,11,1,4,56,2,0,1,0.46884,0,Congruent
487,11,1,4,57,1,1,1,0.42894,0,Neutral
488,11,1,4,58,2,1,1,0.44797,0,Neutral
489,11,1,4,59,2,0,1,0.44445,0,Congruent
490,11,1,4,60,2,1,1,0.48911000000000004,0,Neutral
491,11,1,4,61,1,0,1,0.44033,0,Congruent
492,11,1,4,62,1,1,1,0.41496000000000005,0,Neutral
493,11,1,4,63,2,2,1,0.40155,0,Incongruent
494,11,1,4,64,1,2,1,0.42963999999999997,0,Incongruent
495,11,1,4,65,2,2,1,0.48196000000000006,0,Incongruent
496,11,1,4,66,2,2,1,0.50466,0,Incongruent
497,11,1,4,67,1,0,1,0.5101600000000001,0,Congruent
498,11,1,4,68,2,2,1,0.56421,0,Incongruent
499,11,1,4,69,1,2,1,0.40528000000000003,0,Incongruent
500,11,1,4,70,2,2,1,0.42477,0,Incongruent
501,11,1,4,71,1,2,1,0.4608,0,Incongruent
502,11,1,4,72,2,1,1,0.45899999999999996,0,Neutral
503,11,1,4,73,1,0,1,0.36934,0,Congruent
504,11,1,4,74,1,1,1,0.44471000000000005,0,Neutral
505,11,1,4,75,1,2,1,0.39328,0,Incongruent
506,11,1,4,76,2,1,1,0.45363000000000003,0,Neutral
507,11,1,4,77,1,2,1,0.41765,0,Incongruent
508,11,1,4,78,1,0,1,0.36615,0,Congruent
509,11,1,4,79,1,0,1,0.35278000000000004,0,Congruent
510,11,1,4,80,2,0,1,0.40667,0,Congruent
511,11,1,4,81,1,0,1,0.45755,0,Congruent
512,11,1,4,82,2,1,1,0.48598,0,Neutral
513,11,1,4,83,1,1,1,0.38818,0,Neutral
514,11,1,4,84,2,1,1,0.41578000000000004,0,Neutral
515,11,1,4,85,2,1,1,0.44313,0,Neutral
516,11,1,4,86,1,0,1,0.44136000000000003,0,Congruent
517,11,1,4,87,2,0,1,0.3673,0,Congruent
518,11,1,4,88,1,2,1,0.38647,0,Incongruent
519,11,1,4,89,1,2,1,0.52477,0,Incongruent
520,11,1,4,90,1,1,1,0.41216,0,Neutral
521,11,1,4,91,2,1,1,0.45016999999999996,0,Neutral
522,11,1,4,92,2,2,0,0.3913,0,Incongruent
523,11,1,4,93,2,2,1,0.48993000000000003,0,Incongruent
524,11,1,4,94,2,2,1,0.43268,0,Incongruent
525,11,1,4,95,2,0,1,0.42212,0,Congruent
526,11,1,4,96,2,0,1,0.45847,0,Congruent
527,11,1,4,97,1,0,1,0.39035,0,Congruent
528,11,1,4,98,1,2,1,0.47585,0,Incongruent
529,11,1,4,99,1,0,1,0.40988,0,Congruent
530,11,1,4,100,2,0,1,0.46153,0,Congruent
531,11,1,4,101,1,0,1,0.35436,0,Congruent
532,11,1,4,102,2,1,1,0.45418000000000003,0,Neutral
533,11,1,4,103,2,0,1,0.46581999999999996,0,Congruent
534,11,1,4,104,2,1,1,0.4799,0,Neutral
535,11,1,4,105,2,0,1,0.55815,0,Congruent
536,11,1,4,106,2,1,1,0.40857,0,Neutral
537,11,1,4,107,1,1,1,0.54679,0,Neutral
538,11,1,4,108,2,1,1,0.45014,0,Neutral
539,11,1,4,109,2,2,1,0.48782,0,Incongruent
540,11,1,4,110,2,0,1,0.42058999999999996,0,Congruent
541,11,1,4,111,1,0,1,0.41035,0,Congruent
542,11,1,4,112,1,0,1,0.38153000000000004,0,Congruent
543,11,1,4,113,2,1,1,0.48128000000000004,0,Neutral
544,11,1,4,114,2,1,1,0.42265,0,Neutral
545,11,1,4,115,1,0,1,0.37932,0,Congruent
546,11,1,4,116,1,2,1,0.47088,0,Incongruent
547,11,1,4,117,2,0,1,0.40558,0,Congruent
548,11,1,4,118,2,0,1,0.48031,0,Congruent
549,11,1,4,119,2,2,1,0.45643,0,Incongruent
550,11,1,4,120,1,2,1,0.44626000000000005,0,Incongruent
551,11,1,4,121,1,1,1,0.39438,0,Neutral
552,11,1,4,122,1,2,1,0.59791,0,Incongruent
553,11,1,4,123,2,1,1,0.44961,0,Neutral
554,11,1,4,124,1,0,1,0.45938,0,Congruent
555,11,1,4,125,2,1,1,0.48865,0,Neutral
556,11,1,4,126,1,2,1,0.35109,0,Incongruent
557,11,1,4,127,2,1,1,0.43388000000000004,0,Neutral
558,11,1,4,128,1,1,1,0.39116,0,Neutral
559,11,1,4,129,2,0,1,0.37005,0,Congruent
560,11,1,4,130,1,0,1,0.35885,0,Congruent
561,11,1,4,131,1,2,1,0.48946999999999996,0,Incongruent
562,11,1,4,132,1,1,1,0.37837,0,Neutral
563,11,1,4,133,2,2,1,0.4599,0,Incongruent
564,11,1,4,134,1,2,1,0.42413,0,Incongruent
565,11,1,4,135,1,0,1,0.43087,0,Congruent
567,11,1,4,137,1,1,1,0.37067,0,Neutral
568,11,1,4,138,2,0,1,0.43125,0,Congruent
569,11,1,4,139,1,2,1,0.5875600000000001,0,Incongruent
570,11,1,4,140,2,0,1,0.4688,0,Congruent
571,11,1,4,141,1,1,1,0.3691,0,Neutral
572,11,1,4,142,2,1,1,0.47628000000000004,0,Neutral
573,11,1,4,143,2,2,1,0.44961999999999996,0,Incongruent
574,11,1,4,144,1,2,0,0.40753,0,Incongruent
576,11,1,5,2,1,0,1,0.39724,0,Congruent
577,11,1,5,3,1,1,1,0.35302,0,Neutral
578,11,1,5,4,1,2,1,0.45893,0,Incongruent
579,11,1,5,5,2,0,1,0.42488000000000004,0,Congruent
580,11,1,5,6,1,1,1,0.31008,0,Neutral
581,11,1,5,7,1,1,1,0.35978000000000004,0,Neutral
582,11,1,5,8,2,0,1,0.41023000000000004,0,Congruent
583,11,1,5,9,2,1,1,0.46243,0,Neutral
584,11,1,5,10,2,0,0,0.31545,0,Congruent
585,11,1,5,11,1,2,1,0.48615,0,Incongruent
586,11,1,5,12,1,0,1,0.42023999999999995,0,Congruent
587,11,1,5,13,1,2,1,0.46458999999999995,0,Incongruent
588,11,1,5,14,1,1,1,0.37389,0,Neutral
589,11,1,5,15,2,1,1,0.44214,0,Neutral
590,11,1,5,16,2,1,1,0.3986,0,Neutral
591,11,1,5,17,1,2,1,0.41794,0,Incongruent
592,11,1,5,18,2,0,1,0.39896,0,Congruent
593,11,1,5,19,2,2,1,0.5303800000000001,0,Incongruent
594,11,1,5,20,2,0,1,0.39433,0,Congruent
595,11,1,5,21,2,0,1,0.38245,0,Congruent
596,11,1,5,22,2,2,1,0.48931,0,Incongruent
597,11,1,5,23,2,2,1,0.52718,0,Incongruent
598,11,1,5,24,2,2,1,0.42383000000000004,0,Incongruent
599,11,1,5,25,2,2,1,0.35505,0,Incongruent
600,11,1,5,26,1,2,0,0.42281,0,Incongruent
601,11,1,5,27,2,2,1,0.42736,0,Incongruent
602,11,1,5,28,1,1,1,0.44042,0,Neutral
603,11,1,5,29,2,2,1,0.43683999999999995,0,Incongruent
604,11,1,5,30,2,0,1,0.42838999999999994,0,Congruent
605,11,1,5,31,2,1,1,0.3926,0,Neutral
606,11,1,5,32,1,1,1,0.44278999999999996,0,Neutral
607,11,1,5,33,1,2,1,0.47048,0,Incongruent
608,11,1,5,34,2,0,1,0.42811000000000005,0,Congruent
609,11,1,5,35,2,1,1,0.42655,0,Neutral
610,11,1,5,36,1,1,1,0.4225,0,Neutral
611,11,1,5,37,2,1,1,0.40162,0,Neutral
612,11,1,5,38,2,0,1,0.44777,0,Congruent
613,11,1,5,39,2,2,1,0.48406000000000005,0,Incongruent
614,11,1,5,40,1,2,1,0.36236999999999997,0,Incongruent
615,11,1,5,41,1,0,1,0.40473000000000003,0,Congruent
616,11,1,5,42,1,2,1,0.39261999999999997,0,Incongruent
617,11,1,5,43,2,2,1,0.46071000000000006,0,Incongruent
618,11,1,5,44,2,2,1,0.52949,0,Incongruent
619,11,1,5,45,2,0,1,0.35377,0,Congruent
620,11,1,5,46,1,2,1,0.38129,0,Incongruent
621,11,1,5,47,1,1,1,0.41611000000000004,0,Neutral
622,11,1,5,48,1,0,1,0.36529,0,Congruent
623,11,1,5,49,2,2,1,0.42503,0,Incongruent
624,11,1,5,50,1,1,1,0.31628,0,Neutral
625,11,1,5,51,1,1,1,0.36658,0,Neutral
626,11,1,5,52,1,0,1,0.36148,0,Congruent
627,11,1,5,53,2,0,1,0.4937,0,Congruent
628,11,1,5,54,2,2,1,0.51577,0,Incongruent
629,11,1,5,55,2,1,1,0.38523,0,Neutral
630,11,1,5,56,2,1,1,0.37326,0,Neutral
631,11,1,5,57,2,2,1,0.353,0,Incongruent
632,11,1,5,58,2,2,1,0.51651,0,Incongruent
633,11,1,5,59,2,1,1,0.40304,0,Neutral
634,11,1,5,60,2,2,1,0.5434899999999999,0,Incongruent
635,11,1,5,61,1,0,1,0.4053,0,Congruent
636,11,1,5,62,1,0,1,0.33931,0,Congruent
637,11,1,5,63,2,2,1,0.38984,0,Incongruent
638,11,1,5,64,2,1,1,0.4008,0,Neutral
639,11,1,5,65,1,2,1,0.43632,0,Incongruent
640,11,1,5,66,2,1,1,0.40935,0,Neutral
641,11,1,5,67,1,1,1,0.34951,0,Neutral
642,11,1,5,68,1,0,1,0.40838,0,Congruent
643,11,1,5,69,1,0,1,0.34115,0,Congruent
644,11,1,5,70,1,2,1,0.33544,0,Incongruent
645,11,1,5,71,1,1,1,0.33009,0,Neutral
646,11,1,5,72,1,2,1,0.34788,0,Incongruent
647,11,1,5,73,2,1,1,0.43195,0,Neutral
648,11,1,5,74,2,0,1,0.34004,0,Congruent
649,11,1,5,75,1,0,1,0.39923000000000003,0,Congruent
650,11,1,5,76,1,0,1,0.42696000000000006,0,Congruent
651,11,1,5,77,2,1,1,0.40791,0,Neutral
652,11,1,5,78,2,0,1,0.41985,0,Congruent
653,11,1,5,79,2,0,1,0.38411999999999996,0,Congruent
654,11,1,5,80,2,2,1,0.56534,0,Incongruent
655,11,1,5,81,2,2,1,0.45874,0,Incongruent
656,11,1,5,82,1,2,1,0.36814,0,Incongruent
657,11,1,5,83,1,1,1,0.3638,0,Neutral
658,11,1,5,84,1,1,1,0.34192,0,Neutral
659,11,1,5,85,2,0,0,0.39453,0,Congruent
660,11,1,5,86,2,0,1,0.4853,0,Congruent
661,11,1,5,87,2,0,1,0.37167,0,Congruent
662,11,1,5,88,2,1,1,0.43918999999999997,0,Neutral
663,11,1,5,89,1,0,1,0.40275,0,Congruent
664,11,1,5,90,1,0,1,0.33488,0,Congruent
665,11,1,5,91,1,0,1,0.35447,0,Congruent
666,11,1,5,92,1,2,1,0.40604,0,Incongruent
667,11,1,5,93,1,2,1,0.43291,0,Incongruent
668,11,1,5,94,1,2,1,0.49446999999999997,0,Incongruent
669,11,1,5,95,2,0,1,0.46062,0,Congruent
670,11,1,5,96,2,0,1,0.44261000000000006,0,Congruent
671,11,1,5,97,2,2,0,0.39268000000000003,0,Incongruent
672,11,1,5,98,1,2,1,0.4276,0,Incongruent
673,11,1,5,99,1,0,1,0.38378,0,Congruent
674,11,1,5,100,1,1,1,0.37917,0,Neutral
675,11,1,5,101,2,2,1,0.44797,0,Incongruent
676,11,1,5,102,1,0,1,0.43696999999999997,0,Congruent
677,11,1,5,103,2,1,1,0.34554,0,Neutral
678,11,1,5,104,2,0,1,0.37085,0,Congruent
679,11,1,5,105,2,1,1,0.40015,0,Neutral
680,11,1,5,106,2,1,1,0.40369,0,Neutral
681,11,1,5,107,1,2,1,0.47913999999999995,0,Incongruent
682,11,1,5,108,1,0,1,0.37329,0,Congruent
683,11,1,5,109,2,2,1,0.54492,0,Incongruent
684,11,1,5,110,1,2,1,0.41636999999999996,0,Incongruent
685,11,1,5,111,1,2,1,0.49987,0,Incongruent
686,11,1,5,112,1,1,1,0.40995,0,Neutral
687,11,1,5,113,1,1,1,0.3919,0,Neutral
688,11,1,5,114,2,1,1,0.46598999999999996,0,Neutral
689,11,1,5,115,2,0,1,0.43256999999999995,0,Congruent
690,11,1,5,116,1,1,1,0.42888000000000004,0,Neutral
691,11,1,5,117,2,1,1,0.43404,0,Neutral
692,11,1,5,118,1,0,1,0.33549,0,Congruent
693,11,1,5,119,1,2,0,0.37111,0,Incongruent
694,11,1,5,120,1,2,1,0.3733,0,Incongruent
695,11,1,5,121,1,0,1,0.39316,0,Congruent
696,11,1,5,122,2,2,1,0.46786000000000005,0,Incongruent
697,11,1,5,123,2,0,1,0.44098000000000004,0,Congruent
698,11,1,5,124,1,0,1,0.42273999999999995,0,Congruent
699,11,1,5,125,2,0,1,0.47522,0,Congruent
700,11,1,5,126,1,1,1,0.36891999999999997,0,Neutral
701,11,1,5,127,2,1,1,0.46703,0,Neutral
702,11,1,5,128,2,1,1,0.40267,0,Neutral
703,11,1,5,129,1,0,1,0.39901,0,Congruent
704,11,1,5,130,1,0,1,0.41012,0,Congruent
705,11,1,5,131,1,0,1,0.39071999999999996,0,Congruent
706,11,1,5,132,1,0,1,0.43345,0,Congruent
707,11,1,5,133,2,1,1,0.5039600000000001,0,Neutral
708,11,1,5,134,1,1,1,0.42203,0,Neutral
709,11,1,5,135,2,2,1,0.45663000000000004,0,Incongruent
710,11,1,5,136,2,1,1,0.43063999999999997,0,Neutral
711,11,1,5,137,1,1,1,0.41977,0,Neutral
712,11,1,5,138,2,1,1,0.44038999999999995,0,Neutral
713,11,1,5,139,2,0,1,0.45383,0,Congruent
714,11,1,5,140,1,2,1,0.5625100000000001,0,Incongruent
715,11,1,5,141,2,2,1,0.51441,0,Incongruent
716,11,1,5,142,1,2,1,0.36068,0,Incongruent
717,11,1,5,143,1,1,1,0.44437,0,Neutral
718,11,1,5,144,1,1,1,0.37921,0,Neutral
0,12,1,1,2,1,2,1,0.76991,0,Incongruent
1,12,1,1,3,1,2,1,0.4782,0,Incongruent
2,12,1,1,4,2,2,0,0.38013,0,Incongruent
3,12,1,1,5,1,0,1,0.51879,0,Congruent
4,12,1,1,6,2,0,1,0.51115,0,Congruent
6,12,1,1,8,2,1,1,0.41849,0,Neutral
7,12,1,1,9,2,1,1,0.43856000000000006,0,Neutral
8,12,1,1,10,2,0,1,0.41072,0,Congruent
9,12,1,1,11,1,2,0,0.36015,0,Incongruent
10,12,1,1,12,2,2,1,0.33178,0,Incongruent
11,12,1,1,13,2,1,1,0.39023,0,Neutral
12,12,1,1,14,2,2,1,0.6007,0,Incongruent
13,12,1,1,15,2,0,1,0.36961,0,Congruent
14,12,1,1,16,2,0,1,0.51805,0,Congruent
15,12,1,1,17,1,0,0,0.3885,0,Congruent
16,12,1,1,18,1,1,1,0.51279,0,Neutral
17,12,1,1,19,1,2,1,0.5976100000000001,0,Incongruent
18,12,1,1,20,1,1,1,0.45508999999999994,0,Neutral
19,12,1,1,21,2,0,1,0.5885199999999999,0,Congruent
20,12,1,1,22,1,1,1,0.5098,0,Neutral
21,12,1,1,23,2,2,1,0.5808399999999999,0,Incongruent
22,12,1,1,24,2,0,1,0.4519,0,Congruent
23,12,1,1,25,2,2,1,0.38522,0,Incongruent
24,12,1,1,26,2,1,1,0.43641,0,Neutral
25,12,1,1,27,2,2,1,0.5551699999999999,0,Incongruent
26,12,1,1,28,2,1,0,0.40328,0,Neutral
27,12,1,1,29,2,1,1,0.4809,0,Neutral
28,12,1,1,30,1,1,1,0.48396999999999996,0,Neutral
29,12,1,1,31,2,2,1,0.47412,0,Incongruent
30,12,1,1,32,1,1,1,0.42505,0,Neutral
31,12,1,1,33,2,0,1,0.52745,0,Congruent
32,12,1,1,34,2,1,1,0.43643000000000004,0,Neutral
33,12,1,1,35,1,1,1,0.46453999999999995,0,Neutral
34,12,1,1,36,1,1,1,0.49537,0,Neutral
35,12,1,1,37,1,2,1,0.44536000000000003,0,Incongruent
36,12,1,1,38,1,0,1,0.50703,0,Congruent
37,12,1,1,39,2,0,1,0.41667,0,Congruent
38,12,1,1,40,1,2,1,0.59724,0,Incongruent
39,12,1,1,41,2,2,0,0.39725,0,Incongruent
40,12,1,1,42,1,2,1,0.48985,0,Incongruent
42,12,1,1,44,2,1,1,0.33616999999999997,0,Neutral
43,12,1,1,45,1,2,0,0.38672,0,Incongruent
44,12,1,1,46,2,1,1,0.41421,0,Neutral
45,12,1,1,47,2,1,1,0.40978000000000003,0,Neutral
46,12,1,1,48,2,2,0,0.31874,0,Incongruent
47,12,1,1,49,2,0,1,0.5371100000000001,0,Congruent
48,12,1,1,50,1,0,1,0.47215,0,Congruent
49,12,1,1,51,2,0,1,0.5164,0,Congruent
50,12,1,1,52,2,1,1,0.40660999999999997,0,Neutral
51,12,1,1,53,1,0,1,0.4562,0,Congruent
52,12,1,1,54,2,2,1,0.5727399999999999,0,Incongruent
53,12,1,1,55,2,2,1,0.64459,0,Incongruent
54,12,1,1,56,2,2,1,0.56693,0,Incongruent
55,12,1,1,57,2,0,1,0.42368,0,Congruent
56,12,1,1,58,2,2,1,0.81918,0,Incongruent
57,12,1,1,59,1,0,1,0.41115,0,Congruent
58,12,1,1,60,1,2,1,0.7015100000000001,0,Incongruent
59,12,1,1,61,1,1,0,0.49003,0,Neutral
60,12,1,1,62,2,1,1,0.47138,0,Neutral
61,12,1,1,63,2,1,1,0.46839,0,Neutral
62,12,1,1,64,2,2,1,0.6342300000000001,0,Incongruent
63,12,1,1,65,1,1,1,0.49223999999999996,0,Neutral
64,12,1,1,66,2,1,1,0.47431,0,Neutral
65,12,1,1,67,2,1,1,0.44995,0,Neutral
66,12,1,1,68,2,1,1,0.37382,0,Neutral
67,12,1,1,69,2,2,1,0.53813,0,Incongruent
68,12,1,1,70,1,1,1,0.5770000000000001,0,Neutral
69,12,1,1,71,1,1,1,0.66571,0,Neutral
70,12,1,1,72,2,2,1,0.6208,0,Incongruent
71,12,1,1,73,1,0,1,0.51017,0,Congruent
72,12,1,1,74,2,1,1,0.48508,0,Neutral
73,12,1,1,75,2,2,1,0.64251,0,Incongruent
74,12,1,1,76,2,0,1,0.60334,0,Congruent
75,12,1,1,77,1,2,1,0.54023,0,Incongruent
76,12,1,1,78,1,2,0,0.46752,0,Incongruent
77,12,1,1,79,1,0,1,0.86656,0,Congruent
78,12,1,1,80,1,1,1,0.48178999999999994,0,Neutral
79,12,1,1,81,2,0,1,0.66264,0,Congruent
81,12,1,1,83,1,0,1,0.5827600000000001,0,Congruent
82,12,1,1,84,1,0,1,0.51749,0,Congruent
83,12,1,1,85,2,0,1,0.5888800000000001,0,Congruent
84,12,1,1,86,1,0,1,0.51013,0,Congruent
85,12,1,1,87,1,0,1,0.91645,0,Congruent
86,12,1,1,88,1,2,0,0.54805,0,Incongruent
87,12,1,1,89,1,1,0,0.34147,0,Neutral
88,12,1,1,90,2,0,1,0.47216,0,Congruent
89,12,1,1,91,1,0,1,0.48433999999999994,0,Congruent
90,12,1,1,92,1,2,1,0.71437,0,Incongruent
91,12,1,1,93,2,2,1,0.43005,0,Incongruent
92,12,1,1,94,2,0,1,0.41977,0,Congruent
93,12,1,1,95,2,0,1,0.36994,0,Congruent
94,12,1,1,96,1,2,1,0.87441,0,Incongruent
95,12,1,1,97,2,2,1,0.58727,0,Incongruent
96,12,1,1,98,2,1,1,0.46093999999999996,0,Neutral
97,12,1,1,99,2,0,1,0.6814600000000001,0,Congruent
98,12,1,1,100,1,0,1,0.55782,0,Congruent
99,12,1,1,101,1,2,0,0.39655,0,Incongruent
100,12,1,1,102,2,0,1,0.72288,0,Congruent
101,12,1,1,103,1,2,1,0.7385,0,Incongruent
102,12,1,1,104,2,1,1,0.6724899999999999,0,Neutral
103,12,1,1,105,2,2,1,0.50558,0,Incongruent
104,12,1,1,106,1,0,1,0.49883,0,Congruent
105,12,1,1,107,2,1,1,0.50278,0,Neutral
107,12,1,1,109,1,1,0,0.39253000000000005,0,Neutral
108,12,1,1,110,1,1,1,0.57207,0,Neutral
110,12,1,1,112,1,1,1,0.41491000000000006,0,Neutral
111,12,1,1,113,1,1,1,0.5150399999999999,0,Neutral
114,12,1,1,116,2,0,1,0.66987,0,Congruent
115,12,1,1,117,2,0,1,0.73883,0,Congruent
118,12,1,1,120,1,1,1,0.75481,0,Neutral
119,12,1,1,121,2,1,1,0.78417,0,Neutral
120,12,1,1,122,1,0,1,0.55703,0,Congruent
121,12,1,1,123,1,2,1,0.76512,0,Incongruent
122,12,1,1,124,1,0,1,0.68928,0,Congruent
123,12,1,1,125,2,2,1,0.6543399999999999,0,Incongruent
124,12,1,1,126,1,0,1,0.7663800000000001,0,Congruent
125,12,1,1,127,1,1,1,0.3872,0,Neutral
126,12,1,1,128,1,0,1,0.37563,0,Congruent
127,12,1,1,129,1,1,1,0.5385300000000001,0,Neutral
128,12,1,1,130,1,1,1,0.54506,0,Neutral
129,12,1,1,131,1,2,1,0.60087,0,Incongruent
132,12,1,1,134,1,2,1,0.7549600000000001,0,Incongruent
133,12,1,1,135,1,2,1,0.8317399999999999,0,Incongruent
135,12,1,1,137,2,2,1,0.73538,0,Incongruent
136,12,1,1,138,2,0,1,0.73082,0,Congruent
137,12,1,1,139,1,2,1,0.60016,0,Incongruent
138,12,1,1,140,2,1,1,0.47933000000000003,0,Neutral
139,12,1,1,141,2,2,1,0.61444,0,Incongruent
140,12,1,1,142,1,0,1,0.47839,0,Congruent
141,12,1,1,143,2,1,1,0.51012,0,Neutral
142,12,1,1,144,1,0,1,0.8680100000000001,0,Congruent
145,12,1,2,3,2,1,1,0.44093999999999994,0,Neutral
146,12,1,2,4,2,2,1,0.59938,0,Incongruent
147,12,1,2,5,2,0,1,0.38292,0,Congruent
148,12,1,2,6,1,0,0,0.35036,0,Congruent
149,12,1,2,7,2,1,1,0.37368,0,Neutral
150,12,1,2,8,1,0,1,0.48401000000000005,0,Congruent
151,12,1,2,9,2,0,1,0.45525,0,Congruent
152,12,1,2,10,1,1,1,0.46313000000000004,0,Neutral
153,12,1,2,11,2,2,1,0.46571,0,Incongruent
154,12,1,2,12,1,0,1,0.42336,0,Congruent
155,12,1,2,13,1,1,1,0.52428,0,Neutral
156,12,1,2,14,2,2,1,0.52481,0,Incongruent
157,12,1,2,15,1,2,1,0.6455,0,Incongruent
158,12,1,2,16,2,0,1,0.46092,0,Congruent
159,12,1,2,17,2,2,0,0.46637,0,Incongruent
160,12,1,2,18,1,0,1,0.4151,0,Congruent
161,12,1,2,19,1,1,1,0.4999,0,Neutral
163,12,1,2,21,1,2,1,0.49054,0,Incongruent
164,12,1,2,22,1,1,1,0.48211000000000004,0,Neutral
165,12,1,2,23,2,2,1,0.6799,0,Incongruent
166,12,1,2,24,2,1,1,0.49007,0,Neutral
167,12,1,2,25,1,1,1,0.6482,0,Neutral
169,12,1,2,27,2,0,1,0.50781,0,Congruent
170,12,1,2,28,1,0,1,0.69738,0,Congruent
171,12,1,2,29,2,2,1,0.48596999999999996,0,Incongruent
172,12,1,2,30,2,2,1,0.8587799999999999,0,Incongruent
173,12,1,2,31,2,1,1,0.47558,0,Neutral
174,12,1,2,32,2,2,1,0.59927,0,Incongruent
175,12,1,2,33,1,1,1,0.59207,0,Neutral
176,12,1,2,34,2,2,1,0.76136,0,Incongruent
178,12,1,2,36,2,0,1,0.61595,0,Congruent
179,12,1,2,37,1,2,1,0.6816800000000001,0,Incongruent
180,12,1,2,38,2,1,1,0.7824,0,Neutral
181,12,1,2,39,1,1,1,0.51218,0,Neutral
182,12,1,2,40,2,0,1,0.5586800000000001,0,Congruent
183,12,1,2,41,1,0,1,0.67889,0,Congruent
184,12,1,2,42,1,0,1,0.5304800000000001,0,Congruent
185,12,1,2,43,1,1,1,0.83201,0,Neutral
186,12,1,2,44,2,1,1,0.60036,0,Neutral
187,12,1,2,45,2,1,1,0.72878,0,Neutral
188,12,1,2,46,1,0,1,0.53238,0,Congruent
189,12,1,2,47,1,2,1,0.5463399999999999,0,Incongruent
190,12,1,2,48,1,1,1,0.63383,0,Neutral
191,12,1,2,49,1,0,1,0.56535,0,Congruent
192,12,1,2,50,1,2,1,0.62775,0,Incongruent
193,12,1,2,51,2,0,1,0.75046,0,Congruent
194,12,1,2,52,1,1,1,0.738,0,Neutral
195,12,1,2,53,2,2,1,0.63823,0,Incongruent
196,12,1,2,54,2,2,1,0.6236,0,Incongruent
197,12,1,2,55,2,1,1,0.60843,0,Neutral
198,12,1,2,56,1,1,1,0.79586,0,Neutral
199,12,1,2,57,2,1,1,0.5283,0,Neutral
200,12,1,2,58,2,2,1,0.66394,0,Incongruent
201,12,1,2,59,2,1,1,0.59362,0,Neutral
202,12,1,2,60,1,1,1,0.88905,0,Neutral
203,12,1,2,61,2,2,1,0.56963,0,Incongruent
204,12,1,2,62,2,1,1,0.57809,0,Neutral
205,12,1,2,63,2,0,1,0.38566,0,Congruent
206,12,1,2,64,1,0,1,0.51854,0,Congruent
208,12,1,2,66,2,1,1,0.47476,0,Neutral
209,12,1,2,67,1,2,1,0.49423999999999996,0,Incongruent
210,12,1,2,68,1,0,1,0.5489999999999999,0,Congruent
211,12,1,2,69,2,1,1,0.50984,0,Neutral
212,12,1,2,70,2,1,1,0.586,0,Neutral
213,12,1,2,71,1,2,1,0.53782,0,Incongruent
214,12,1,2,72,1,0,1,0.69099,0,Congruent
215,12,1,2,73,2,1,1,0.57289,0,Neutral
216,12,1,2,74,2,0,1,0.52463,0,Congruent
217,12,1,2,75,1,0,1,0.50965,0,Congruent
218,12,1,2,76,1,0,1,0.44573,0,Congruent
219,12,1,2,77,1,1,1,0.4256,0,Neutral
221,12,1,2,79,2,2,1,0.5917899999999999,0,Incongruent
222,12,1,2,80,2,0,1,0.66497,0,Congruent
223,12,1,2,81,2,0,1,0.48253999999999997,0,Congruent
224,12,1,2,82,1,2,1,0.75402,0,Incongruent
225,12,1,2,83,1,1,1,0.65452,0,Neutral
226,12,1,2,84,1,0,1,0.6251,0,Congruent
227,12,1,2,85,1,2,1,0.8738299999999999,0,Incongruent
228,12,1,2,86,1,1,1,0.61706,0,Neutral
229,12,1,2,87,2,1,1,0.57052,0,Neutral
232,12,1,2,90,1,2,1,0.51994,0,Incongruent
233,12,1,2,91,1,2,1,0.63173,0,Incongruent
234,12,1,2,92,2,2,0,0.37636,0,Incongruent
235,12,1,2,93,1,2,0,0.38719000000000003,0,Incongruent
236,12,1,2,94,2,2,1,0.4946,0,Incongruent
237,12,1,2,95,1,0,1,0.5273399999999999,0,Congruent
238,12,1,2,96,1,1,1,0.64552,0,Neutral
239,12,1,2,97,2,0,1,0.44561000000000006,0,Congruent
240,12,1,2,98,1,1,1,0.5229600000000001,0,Neutral
241,12,1,2,99,1,2,0,0.40236,0,Incongruent
242,12,1,2,100,2,0,1,0.47121999999999997,0,Congruent
243,12,1,2,101,2,0,1,0.5566300000000001,0,Congruent
244,12,1,2,102,2,1,1,0.6429199999999999,0,Neutral
245,12,1,2,103,2,1,1,0.59788,0,Neutral
246,12,1,2,104,1,1,1,0.55057,0,Neutral
248,12,1,2,106,2,0,1,0.60535,0,Congruent
249,12,1,2,107,1,0,1,0.43863,0,Congruent
250,12,1,2,108,1,0,1,0.41751000000000005,0,Congruent
251,12,1,2,109,2,0,1,0.47866000000000003,0,Congruent
253,12,1,2,111,1,1,1,0.56504,0,Neutral
254,12,1,2,112,2,1,1,0.58701,0,Neutral
255,12,1,2,113,2,1,1,0.44372,0,Neutral
256,12,1,2,114,2,1,1,0.66793,0,Neutral
257,12,1,2,115,1,0,1,0.8447,0,Congruent
258,12,1,2,116,2,0,1,0.50663,0,Congruent
259,12,1,2,117,2,1,1,0.55408,0,Neutral
260,12,1,2,118,2,2,1,0.53654,0,Incongruent
261,12,1,2,119,1,2,1,0.65568,0,Incongruent
262,12,1,2,120,1,1,1,0.467,0,Neutral
264,12,1,2,122,2,2,1,0.5634100000000001,0,Incongruent
265,12,1,2,123,2,0,1,0.7155100000000001,0,Congruent
266,12,1,2,124,2,0,1,0.45564,0,Congruent
267,12,1,2,125,2,2,1,0.759,0,Incongruent
268,12,1,2,126,2,0,1,0.44998,0,Congruent
269,12,1,2,127,1,1,1,0.79009,0,Neutral
270,12,1,2,128,1,1,1,0.64447,0,Neutral
271,12,1,2,129,1,2,1,0.8609899999999999,0,Incongruent
272,12,1,2,130,1,2,1,0.68491,0,Incongruent
273,12,1,2,131,2,0,1,0.52725,0,Congruent
274,12,1,2,132,2,1,1,0.5819300000000001,0,Neutral
276,12,1,2,134,1,1,1,0.53652,0,Neutral
277,12,1,2,135,1,0,1,0.5344800000000001,0,Congruent
279,12,1,2,137,1,2,1,0.60344,0,Incongruent
280,12,1,2,138,2,2,1,0.49199,0,Incongruent
281,12,1,2,139,1,0,1,0.92148,0,Congruent
282,12,1,2,140,2,0,1,0.53156,0,Congruent
283,12,1,2,141,2,2,1,0.69019,0,Incongruent
284,12,1,2,142,1,0,1,0.5577,0,Congruent
285,12,1,2,143,1,2,1,0.66785,0,Incongruent
287,12,1,3,1,2,1,1,0.40012,0,Neutral
288,12,1,3,2,2,0,1,0.35496,0,Congruent
289,12,1,3,3,2,2,1,0.53581,0,Incongruent
290,12,1,3,4,2,2,1,0.32343,0,Incongruent
291,12,1,3,5,2,2,1,0.39937,0,Incongruent
292,12,1,3,6,1,0,1,0.41178000000000003,0,Congruent
293,12,1,3,7,1,1,1,0.40687,0,Neutral
294,12,1,3,8,2,0,1,0.4437,0,Congruent
295,12,1,3,9,1,1,0,0.42477,0,Neutral
296,12,1,3,10,2,2,1,0.58031,0,Incongruent
297,12,1,3,11,2,0,1,0.40393,0,Congruent
298,12,1,3,12,1,0,0,0.34515,0,Congruent
299,12,1,3,13,1,0,1,0.49423999999999996,0,Congruent
300,12,1,3,14,2,2,1,0.48245,0,Incongruent
301,12,1,3,15,2,0,1,0.36235,0,Congruent
302,12,1,3,16,2,1,1,0.37944,0,Neutral
303,12,1,3,17,2,2,1,0.39179,0,Incongruent
304,12,1,3,18,1,0,0,0.39551,0,Congruent
305,12,1,3,19,1,2,0,0.48767,0,Incongruent
306,12,1,3,20,2,0,1,0.5252,0,Congruent
307,12,1,3,21,1,1,1,0.5878399999999999,0,Neutral
308,12,1,3,22,2,0,1,0.51557,0,Congruent
309,12,1,3,23,2,2,1,0.61907,0,Incongruent
310,12,1,3,24,2,2,1,0.5659,0,Incongruent
311,12,1,3,25,2,0,1,0.38894,0,Congruent
312,12,1,3,26,2,0,1,0.37106999999999996,0,Congruent
314,12,1,3,28,2,1,1,0.41871,0,Neutral
315,12,1,3,29,2,0,1,0.39216999999999996,0,Congruent
316,12,1,3,30,1,1,1,0.6126199999999999,0,Neutral
317,12,1,3,31,1,2,0,0.45993,0,Incongruent
318,12,1,3,32,1,2,0,0.37849,0,Incongruent
320,12,1,3,34,2,1,1,0.41456000000000004,0,Neutral
321,12,1,3,35,1,1,1,0.6260899999999999,0,Neutral
322,12,1,3,36,1,0,1,0.67779,0,Congruent
323,12,1,3,37,1,1,1,0.43168,0,Neutral
324,12,1,3,38,2,2,1,0.51543,0,Incongruent
325,12,1,3,39,1,2,1,0.62707,0,Incongruent
326,12,1,3,40,1,0,1,0.53987,0,Congruent
327,12,1,3,41,1,0,1,0.49113,0,Congruent
328,12,1,3,42,2,1,1,0.57757,0,Neutral
329,12,1,3,43,2,1,1,0.47466,0,Neutral
330,12,1,3,44,2,1,1,0.40781999999999996,0,Neutral
331,12,1,3,45,2,0,1,0.57953,0,Congruent
332,12,1,3,46,1,2,1,0.79092,0,Incongruent
333,12,1,3,47,1,1,1,0.5371,0,Neutral
334,12,1,3,48,1,0,1,0.7477600000000001,0,Congruent
335,12,1,3,49,2,0,1,0.4779,0,Congruent
336,12,1,3,50,1,2,1,0.52447,0,Incongruent
337,12,1,3,51,1,1,1,0.66697,0,Neutral
338,12,1,3,52,1,1,1,0.56553,0,Neutral
339,12,1,3,53,1,2,1,0.85403,0,Incongruent
341,12,1,3,55,1,0,1,0.8316600000000001,0,Congruent
342,12,1,3,56,1,0,1,0.62144,0,Congruent
343,12,1,3,57,1,1,1,0.88634,0,Neutral
344,12,1,3,58,2,1,1,0.4783,0,Neutral
345,12,1,3,59,2,1,1,0.59524,0,Neutral
346,12,1,3,60,2,1,1,0.50841,0,Neutral
347,12,1,3,61,1,0,1,0.68428,0,Congruent
348,12,1,3,62,1,1,0,0.44653000000000004,0,Neutral
349,12,1,3,63,1,1,1,0.68261,0,Neutral
351,12,1,3,65,1,1,1,0.42263,0,Neutral
352,12,1,3,66,2,2,1,0.47613999999999995,0,Incongruent
353,12,1,3,67,1,0,1,0.5535,0,Congruent
354,12,1,3,68,2,2,1,0.61961,0,Incongruent
355,12,1,3,69,2,1,1,0.45069,0,Neutral
356,12,1,3,70,2,2,1,0.9208299999999999,0,Incongruent
357,12,1,3,71,1,1,0,0.37623,0,Neutral
358,12,1,3,72,1,2,1,0.50873,0,Incongruent
359,12,1,3,73,1,0,1,0.47345,0,Congruent
360,12,1,3,74,1,2,1,0.79288,0,Incongruent
361,12,1,3,75,1,1,1,0.5496800000000001,0,Neutral
362,12,1,3,76,2,2,1,0.67777,0,Incongruent
363,12,1,3,77,1,0,1,0.54497,0,Congruent
365,12,1,3,79,1,0,1,0.60118,0,Congruent
366,12,1,3,80,2,2,1,0.5139100000000001,0,Incongruent
367,12,1,3,81,2,1,1,0.37823,0,Neutral
368,12,1,3,82,1,1,1,0.72301,0,Neutral
369,12,1,3,83,1,0,1,0.6560600000000001,0,Congruent
370,12,1,3,84,2,0,1,0.91301,0,Congruent
371,12,1,3,85,2,2,1,0.58662,0,Incongruent
372,12,1,3,86,1,2,1,0.46617,0,Incongruent
373,12,1,3,87,1,0,1,0.59475,0,Congruent
374,12,1,3,88,2,1,1,0.72107,0,Neutral
375,12,1,3,89,2,0,1,0.6368199999999999,0,Congruent
376,12,1,3,90,2,1,1,0.37335,0,Neutral
377,12,1,3,91,1,2,1,0.48202,0,Incongruent
379,12,1,3,93,2,2,1,0.39074000000000003,0,Incongruent
380,12,1,3,94,1,1,1,0.6665300000000001,0,Neutral
381,12,1,3,95,1,1,1,0.42353999999999997,0,Neutral
382,12,1,3,96,2,1,1,0.43543999999999994,0,Neutral
383,12,1,3,97,2,2,1,0.63839,0,Incongruent
384,12,1,3,98,2,2,1,0.53674,0,Incongruent
385,12,1,3,99,1,2,1,0.76815,0,Incongruent
386,12,1,3,100,1,2,1,0.64458,0,Incongruent
387,12,1,3,101,2,0,1,0.44569,0,Congruent
388,12,1,3,102,2,1,1,0.52284,0,Neutral
389,12,1,3,103,1,2,1,0.49407,0,Incongruent
390,12,1,3,104,1,2,1,0.54594,0,Incongruent
391,12,1,3,105,2,0,1,0.51476,0,Congruent
392,12,1,3,106,2,1,1,0.51957,0,Neutral
393,12,1,3,107,2,2,1,0.64717,0,Incongruent
394,12,1,3,108,1,0,1,0.49599,0,Congruent
395,12,1,3,109,1,1,1,0.41461000000000003,0,Neutral
396,12,1,3,110,2,0,1,0.4591,0,Congruent
397,12,1,3,111,2,1,1,0.76127,0,Neutral
398,12,1,3,112,1,2,1,0.59208,0,Incongruent
399,12,1,3,113,1,0,1,0.7338899999999999,0,Congruent
401,12,1,3,115,1,2,1,0.58238,0,Incongruent
402,12,1,3,116,2,2,1,0.61373,0,Incongruent
403,12,1,3,117,2,2,1,0.6230100000000001,0,Incongruent
404,12,1,3,118,1,0,1,0.4963,0,Congruent
405,12,1,3,119,1,2,1,0.6096,0,Incongruent
406,12,1,3,120,2,0,1,0.52742,0,Congruent
407,12,1,3,121,2,2,1,0.8475,0,Incongruent
408,12,1,3,122,1,0,1,0.46913,0,Congruent
409,12,1,3,123,2,0,1,0.42806000000000005,0,Congruent
411,12,1,3,125,2,1,0,0.39429000000000003,0,Neutral
412,12,1,3,126,1,2,0,0.39697,0,Incongruent
413,12,1,3,127,1,1,1,0.60911,0,Neutral
414,12,1,3,128,1,2,0,0.5776,0,Incongruent
415,12,1,3,129,2,2,1,0.45796000000000003,0,Incongruent
416,12,1,3,130,2,1,1,0.58616,0,Neutral
417,12,1,3,131,2,0,1,0.5054,0,Congruent
418,12,1,3,132,2,0,1,0.55248,0,Congruent
419,12,1,3,133,2,0,1,0.53633,0,Congruent
420,12,1,3,134,1,1,1,0.60556,0,Neutral
421,12,1,3,135,1,2,1,0.47856000000000004,0,Incongruent
422,12,1,3,136,2,1,1,0.46981999999999996,0,Neutral
423,12,1,3,137,1,0,1,0.9087200000000001,0,Congruent
424,12,1,3,138,1,2,1,0.90661,0,Incongruent
425,12,1,3,139,2,1,1,0.4922,0,Neutral
426,12,1,3,140,2,2,1,0.5947600000000001,0,Incongruent
427,12,1,3,141,1,1,1,0.57839,0,Neutral
428,12,1,3,142,2,1,1,0.40186,0,Neutral
429,12,1,3,143,1,1,1,0.42248,0,Neutral
430,12,1,3,144,2,0,1,0.42633999999999994,0,Congruent
432,12,1,4,2,1,0,1,0.43022,0,Congruent
433,12,1,4,3,1,1,1,0.47498999999999997,0,Neutral
434,12,1,4,4,2,2,0,0.30315,0,Incongruent
435,12,1,4,5,1,0,1,0.8889100000000001,0,Congruent
436,12,1,4,6,1,2,0,0.65859,0,Incongruent
437,12,1,4,7,1,2,0,0.50026,0,Incongruent
438,12,1,4,8,2,1,1,0.45176000000000005,0,Neutral
439,12,1,4,9,2,0,1,0.40048,0,Congruent
440,12,1,4,10,1,1,0,0.3468,0,Neutral
441,12,1,4,11,2,0,1,0.42299,0,Congruent
442,12,1,4,12,1,1,0,0.41885,0,Neutral
443,12,1,4,13,1,0,1,0.78241,0,Congruent
444,12,1,4,14,2,1,1,0.42791999999999997,0,Neutral
445,12,1,4,15,2,2,1,0.71316,0,Incongruent
446,12,1,4,16,2,2,1,0.4064,0,Incongruent
447,12,1,4,17,2,2,1,0.38556,0,Incongruent
448,12,1,4,18,1,1,0,0.34891,0,Neutral
449,12,1,4,19,2,0,1,0.43333999999999995,0,Congruent
450,12,1,4,20,2,0,1,0.50865,0,Congruent
451,12,1,4,21,1,1,1,0.38635,0,Neutral
452,12,1,4,22,1,1,1,0.47841000000000006,0,Neutral
453,12,1,4,23,2,1,1,0.5485,0,Neutral
454,12,1,4,24,2,2,1,0.60445,0,Incongruent
455,12,1,4,25,2,1,1,0.77299,0,Neutral
456,12,1,4,26,1,0,1,0.77754,0,Congruent
457,12,1,4,27,1,1,1,0.5352399999999999,0,Neutral
458,12,1,4,28,2,1,1,0.46329,0,Neutral
459,12,1,4,29,2,1,1,0.47923000000000004,0,Neutral
461,12,1,4,31,2,1,1,0.53288,0,Neutral
462,12,1,4,32,1,0,1,0.6999,0,Congruent
463,12,1,4,33,1,2,1,0.67072,0,Incongruent
465,12,1,4,35,1,0,1,0.63229,0,Congruent
466,12,1,4,36,1,0,1,0.7146399999999999,0,Congruent
467,12,1,4,37,2,0,1,0.7817,0,Congruent
468,12,1,4,38,1,2,1,0.54156,0,Incongruent
469,12,1,4,39,1,2,1,0.7073,0,Incongruent
471,12,1,4,41,1,0,1,0.51676,0,Congruent
472,12,1,4,42,1,0,1,0.4589,0,Congruent
473,12,1,4,43,1,0,1,0.52966,0,Congruent
474,12,1,4,44,2,1,1,0.7118399999999999,0,Neutral
476,12,1,4,46,1,0,1,0.49933,0,Congruent
477,12,1,4,47,2,1,1,0.4761,0,Neutral
478,12,1,4,48,2,1,1,0.47978000000000004,0,Neutral
479,12,1,4,49,1,2,1,0.7095600000000001,0,Incongruent
480,12,1,4,50,1,2,1,0.6651,0,Incongruent
481,12,1,4,51,1,2,1,0.49338000000000004,0,Incongruent
482,12,1,4,52,2,1,1,0.67508,0,Neutral
483,12,1,4,53,2,2,1,0.63702,0,Incongruent
484,12,1,4,54,1,2,1,0.55187,0,Incongruent
485,12,1,4,55,1,0,1,0.5187,0,Congruent
486,12,1,4,56,1,0,1,0.9097,0,Congruent
487,12,1,4,57,2,0,1,0.4774,0,Congruent
488,12,1,4,58,2,0,1,0.48436,0,Congruent
489,12,1,4,59,2,0,1,0.3367,0,Congruent
490,12,1,4,60,2,1,1,0.41918999999999995,0,Neutral
491,12,1,4,61,1,1,1,0.4644,0,Neutral
492,12,1,4,62,2,1,1,0.58982,0,Neutral
493,12,1,4,63,2,2,1,0.49553,0,Incongruent
494,12,1,4,64,2,2,1,0.67674,0,Incongruent
495,12,1,4,65,1,1,1,0.6558,0,Neutral
496,12,1,4,66,1,0,1,0.44173,0,Congruent
497,12,1,4,67,2,2,1,0.59882,0,Incongruent
498,12,1,4,68,2,2,1,0.43271000000000004,0,Incongruent
499,12,1,4,69,1,1,1,0.5082899999999999,0,Neutral
500,12,1,4,70,2,0,1,0.46141000000000004,0,Congruent
501,12,1,4,71,2,0,1,0.71363,0,Congruent
502,12,1,4,72,2,1,1,0.49238999999999994,0,Neutral
503,12,1,4,73,1,2,1,0.51499,0,Incongruent
504,12,1,4,74,2,1,1,0.48101000000000005,0,Neutral
505,12,1,4,75,2,0,1,0.4565,0,Congruent
507,12,1,4,77,2,2,1,0.42873999999999995,0,Incongruent
508,12,1,4,78,2,2,1,0.43683999999999995,0,Incongruent
509,12,1,4,79,2,2,1,0.4057,0,Incongruent
510,12,1,4,80,1,2,0,0.34598,0,Incongruent
511,12,1,4,81,2,2,1,0.36722,0,Incongruent
512,12,1,4,82,1,2,1,0.48882,0,Incongruent
513,12,1,4,83,2,2,1,0.72847,0,Incongruent
514,12,1,4,84,2,2,1,0.81219,0,Incongruent
515,12,1,4,85,2,2,1,0.4248,0,Incongruent
516,12,1,4,86,2,0,1,0.65447,0,Congruent
517,12,1,4,87,2,0,1,0.51183,0,Congruent
518,12,1,4,88,1,2,1,0.59745,0,Incongruent
519,12,1,4,89,1,0,0,0.47953,0,Congruent
520,12,1,4,90,1,0,1,0.62024,0,Congruent
521,12,1,4,91,2,1,1,0.45488999999999996,0,Neutral
522,12,1,4,92,1,2,1,0.56504,0,Incongruent
523,12,1,4,93,1,2,0,0.49386,0,Incongruent
524,12,1,4,94,2,0,1,0.42846999999999996,0,Congruent
525,12,1,4,95,1,1,1,0.53537,0,Neutral
526,12,1,4,96,2,0,1,0.5261600000000001,0,Congruent
527,12,1,4,97,2,2,1,0.62102,0,Incongruent
528,12,1,4,98,2,2,1,0.71065,0,Incongruent
529,12,1,4,99,1,0,1,0.57887,0,Congruent
530,12,1,4,100,2,1,1,0.56365,0,Neutral
531,12,1,4,101,2,0,1,0.8419399999999999,0,Congruent
533,12,1,4,103,2,2,1,0.46808999999999995,0,Incongruent
534,12,1,4,104,1,1,1,0.5785100000000001,0,Neutral
535,12,1,4,105,1,1,1,0.62775,0,Neutral
536,12,1,4,106,1,1,1,0.61871,0,Neutral
537,12,1,4,107,2,1,1,0.50171,0,Neutral
538,12,1,4,108,2,1,1,0.50022,0,Neutral
539,12,1,4,109,1,1,1,0.50547,0,Neutral
540,12,1,4,110,1,2,1,0.8825799999999999,0,Incongruent
541,12,1,4,111,1,1,1,0.5289,0,Neutral
542,12,1,4,112,1,1,1,0.52735,0,Neutral
543,12,1,4,113,2,0,1,0.60695,0,Congruent
544,12,1,4,114,2,1,1,0.52688,0,Neutral
545,12,1,4,115,1,1,1,0.47844,0,Neutral
546,12,1,4,116,2,0,1,0.5803699999999999,0,Congruent
547,12,1,4,117,1,1,1,0.7891199999999999,0,Neutral
548,12,1,4,118,1,1,1,0.57114,0,Neutral
549,12,1,4,119,2,2,1,0.6595,0,Incongruent
550,12,1,4,120,1,1,1,0.43746,0,Neutral
551,12,1,4,121,1,0,1,0.84247,0,Congruent
552,12,1,4,122,1,0,1,0.40895,0,Congruent
553,12,1,4,123,2,1,1,0.62863,0,Neutral
554,12,1,4,124,2,0,1,0.62962,0,Congruent
555,12,1,4,125,1,0,1,0.48786999999999997,0,Congruent
556,12,1,4,126,2,0,1,0.47806000000000004,0,Congruent
557,12,1,4,127,2,2,1,0.43565,0,Incongruent
558,12,1,4,128,1,2,1,0.52961,0,Incongruent
559,12,1,4,129,1,2,1,0.5433,0,Incongruent
560,12,1,4,130,1,0,1,0.59127,0,Congruent
561,12,1,4,131,2,1,1,0.6483,0,Neutral
563,12,1,4,133,2,0,1,0.5171100000000001,0,Congruent
564,12,1,4,134,2,1,1,0.51566,0,Neutral
565,12,1,4,135,2,0,1,0.43371000000000004,0,Congruent
566,12,1,4,136,1,2,1,0.49451000000000006,0,Incongruent
567,12,1,4,137,1,2,0,0.42196000000000006,0,Incongruent
568,12,1,4,138,1,2,1,0.6422,0,Incongruent
569,12,1,4,139,1,1,1,0.5061100000000001,0,Neutral
570,12,1,4,140,2,1,1,0.71428,0,Neutral
571,12,1,4,141,2,0,1,0.45358999999999994,0,Congruent
572,12,1,4,142,1,2,1,0.5332899999999999,0,Incongruent
573,12,1,4,143,1,0,1,0.54556,0,Congruent
574,12,1,4,144,1,2,1,0.78527,0,Incongruent
575,12,1,5,1,2,0,1,0.8973200000000001,0,Congruent
576,12,1,5,2,1,0,1,0.47413,0,Congruent
577,12,1,5,3,1,0,1,0.73364,0,Congruent
578,12,1,5,4,1,0,1,0.42603,0,Congruent
579,12,1,5,5,1,1,1,0.38264000000000004,0,Neutral
580,12,1,5,6,2,0,1,0.49193000000000003,0,Congruent
581,12,1,5,7,1,1,1,0.49628,0,Neutral
582,12,1,5,8,2,0,1,0.47071,0,Congruent
583,12,1,5,9,2,2,1,0.6703399999999999,0,Incongruent
584,12,1,5,10,1,0,1,0.46351000000000003,0,Congruent
586,12,1,5,12,1,2,1,0.6514,0,Incongruent
587,12,1,5,13,1,0,1,0.53315,0,Congruent
588,12,1,5,14,2,2,1,0.66751,0,Incongruent
589,12,1,5,15,2,1,1,0.38278,0,Neutral
590,12,1,5,16,2,0,1,0.49096000000000006,0,Congruent
591,12,1,5,17,2,2,1,0.57601,0,Incongruent
592,12,1,5,18,1,0,1,0.5209,0,Congruent
593,12,1,5,19,1,0,1,0.5289,0,Congruent
594,12,1,5,20,1,1,1,0.44771000000000005,0,Neutral
596,12,1,5,22,2,1,1,0.41938000000000003,0,Neutral
597,12,1,5,23,1,2,1,0.86393,0,Incongruent
598,12,1,5,24,1,0,1,0.5826,0,Congruent
599,12,1,5,25,1,1,1,0.5360699999999999,0,Neutral
600,12,1,5,26,2,1,1,0.75793,0,Neutral
601,12,1,5,27,2,0,1,0.58649,0,Congruent
602,12,1,5,28,1,1,1,0.66924,0,Neutral
603,12,1,5,29,1,1,1,0.5935,0,Neutral
604,12,1,5,30,2,1,1,0.51051,0,Neutral
605,12,1,5,31,1,0,1,0.5839,0,Congruent
606,12,1,5,32,2,2,1,0.55812,0,Incongruent
607,12,1,5,33,1,1,1,0.53522,0,Neutral
608,12,1,5,34,1,0,1,0.5567,0,Congruent
609,12,1,5,35,2,1,1,0.68815,0,Neutral
610,12,1,5,36,2,2,1,0.6479,0,Incongruent
611,12,1,5,37,1,2,1,0.58706,0,Incongruent
612,12,1,5,38,2,1,1,0.42671000000000003,0,Neutral
615,12,1,5,41,2,1,1,0.40302,0,Neutral
616,12,1,5,42,1,1,1,0.62268,0,Neutral
617,12,1,5,43,2,1,1,0.54459,0,Neutral
618,12,1,5,44,1,0,1,0.51865,0,Congruent
619,12,1,5,45,2,0,1,0.51935,0,Congruent
620,12,1,5,46,2,2,1,0.5725899999999999,0,Incongruent
621,12,1,5,47,2,1,1,0.51825,0,Neutral
622,12,1,5,48,1,0,1,0.57972,0,Congruent
623,12,1,5,49,2,1,1,0.41978999999999994,0,Neutral
624,12,1,5,50,1,1,1,0.8166399999999999,0,Neutral
625,12,1,5,51,2,1,1,0.47,0,Neutral
626,12,1,5,52,1,0,1,0.54069,0,Congruent
627,12,1,5,53,2,0,1,0.43573999999999996,0,Congruent
628,12,1,5,54,2,0,1,0.58454,0,Congruent
629,12,1,5,55,1,2,1,0.5538,0,Incongruent
630,12,1,5,56,2,1,1,0.4258,0,Neutral
631,12,1,5,57,2,0,1,0.58201,0,Congruent
634,12,1,5,60,2,1,1,0.49062,0,Neutral
635,12,1,5,61,2,0,1,0.73159,0,Congruent
636,12,1,5,62,1,0,1,0.5999899999999999,0,Congruent
637,12,1,5,63,2,2,1,0.59117,0,Incongruent
638,12,1,5,64,1,1,1,0.5586800000000001,0,Neutral
639,12,1,5,65,1,1,0,0.48577,0,Neutral
640,12,1,5,66,2,0,1,0.45301,0,Congruent
641,12,1,5,67,1,1,1,0.5062399999999999,0,Neutral
642,12,1,5,68,2,0,1,0.57768,0,Congruent
643,12,1,5,69,2,2,1,0.6099100000000001,0,Incongruent
644,12,1,5,70,1,2,1,0.6341,0,Incongruent
646,12,1,5,72,1,1,1,0.48053999999999997,0,Neutral
647,12,1,5,73,1,1,1,0.63379,0,Neutral
648,12,1,5,74,1,1,1,0.45633999999999997,0,Neutral
649,12,1,5,75,1,2,0,0.47943,0,Incongruent
650,12,1,5,76,2,1,1,0.42765,0,Neutral
651,12,1,5,77,1,1,1,0.70576,0,Neutral
652,12,1,5,78,2,1,1,0.44501,0,Neutral
654,12,1,5,80,1,0,1,0.54357,0,Congruent
655,12,1,5,81,1,2,1,0.57503,0,Incongruent
656,12,1,5,82,1,2,1,0.42522,0,Incongruent
657,12,1,5,83,1,1,1,0.42123999999999995,0,Neutral
658,12,1,5,84,1,2,1,0.5049399999999999,0,Incongruent
659,12,1,5,85,2,0,1,0.5917899999999999,0,Congruent
660,12,1,5,86,2,1,1,0.42463,0,Neutral
661,12,1,5,87,1,2,1,0.605,0,Incongruent
662,12,1,5,88,2,2,1,0.50249,0,Incongruent
663,12,1,5,89,1,2,1,0.52391,0,Incongruent
664,12,1,5,90,1,1,1,0.54971,0,Neutral
665,12,1,5,91,1,2,0,0.54609,0,Incongruent
666,12,1,5,92,2,2,1,0.78527,0,Incongruent
667,12,1,5,93,2,2,0,0.39349,0,Incongruent
668,12,1,5,94,2,2,0,0.51578,0,Incongruent
669,12,1,5,95,1,0,1,0.53967,0,Congruent
670,12,1,5,96,1,0,1,0.71373,0,Congruent
671,12,1,5,97,2,2,1,0.60433,0,Incongruent
673,12,1,5,99,1,2,1,0.54515,0,Incongruent
674,12,1,5,100,2,0,1,0.8178,0,Congruent
675,12,1,5,101,1,0,1,0.72931,0,Congruent
676,12,1,5,102,2,0,1,0.64444,0,Congruent
677,12,1,5,103,2,0,1,0.55716,0,Congruent
678,12,1,5,104,2,1,1,0.38095999999999997,0,Neutral
679,12,1,5,105,2,2,1,0.52959,0,Incongruent
680,12,1,5,106,2,2,1,0.49031,0,Incongruent
681,12,1,5,107,2,1,1,0.35791999999999996,0,Neutral
682,12,1,5,108,2,0,0,0.44964,0,Congruent
683,12,1,5,109,2,0,1,0.5012300000000001,0,Congruent
684,12,1,5,110,1,2,0,0.37346,0,Incongruent
685,12,1,5,111,2,0,1,0.36044,0,Congruent
686,12,1,5,112,2,2,1,0.37926,0,Incongruent
687,12,1,5,113,1,0,1,0.51828,0,Congruent
688,12,1,5,114,1,0,0,0.28606,0,Congruent
689,12,1,5,115,2,0,1,0.43833999999999995,0,Congruent
690,12,1,5,116,2,2,1,0.33059,0,Incongruent
691,12,1,5,117,2,1,1,0.39671999999999996,0,Neutral
692,12,1,5,118,1,1,1,0.46445,0,Neutral
693,12,1,5,119,2,1,1,0.5513,0,Neutral
694,12,1,5,120,2,2,1,0.76177,0,Incongruent
695,12,1,5,121,1,2,0,0.38723,0,Incongruent
696,12,1,5,122,2,1,1,0.48882,0,Neutral
698,12,1,5,124,2,0,1,0.44864,0,Congruent
699,12,1,5,125,1,0,0,0.39664,0,Congruent
700,12,1,5,126,2,2,1,0.24251,0,Incongruent
701,12,1,5,127,1,2,0,0.40152,0,Incongruent
702,12,1,5,128,2,1,1,0.50193,0,Neutral
703,12,1,5,129,2,2,1,0.50712,0,Incongruent
704,12,1,5,130,1,2,1,0.53166,0,Incongruent
705,12,1,5,131,1,2,1,0.45832,0,Incongruent
706,12,1,5,132,2,2,1,0.45553999999999994,0,Incongruent
707,12,1,5,133,1,1,1,0.46818999999999994,0,Neutral
709,12,1,5,135,1,2,1,0.53236,0,Incongruent
710,12,1,5,136,2,2,1,0.57119,0,Incongruent
711,12,1,5,137,2,0,1,0.45986000000000005,0,Congruent
712,12,1,5,138,1,2,1,0.54548,0,Incongruent
713,12,1,5,139,2,1,1,0.51349,0,Neutral
714,12,1,5,140,2,0,1,0.78476,0,Congruent
715,12,1,5,141,1,0,1,0.38153000000000004,0,Congruent
717,12,1,5,143,2,1,1,0.54964,0,Neutral
718,12,1,5,144,1,2,1,0.31545,0,Incongruent
0,13,1,1,2,1,2,0,0.46547,0,Incongruent
3,13,1,1,5,2,1,1,0.53683,0,Neutral
6,13,1,1,8,2,2,1,0.5104,0,Incongruent
7,13,1,1,9,2,1,1,0.50875,0,Neutral
8,13,1,1,10,2,0,1,0.46108000000000005,0,Congruent
9,13,1,1,11,2,2,1,0.49735,0,Incongruent
10,13,1,1,12,1,1,1,0.60055,0,Neutral
11,13,1,1,13,2,0,1,0.36907,0,Congruent
12,13,1,1,14,2,1,1,0.44381000000000004,0,Neutral
13,13,1,1,15,2,0,1,0.40917,0,Congruent
14,13,1,1,16,1,1,1,0.50985,0,Neutral
16,13,1,1,18,1,1,1,0.39485,0,Neutral
17,13,1,1,19,1,2,0,0.45466999999999996,0,Incongruent
19,13,1,1,21,1,0,1,0.45161999999999997,0,Congruent
20,13,1,1,22,2,2,0,0.33555999999999997,0,Incongruent
21,13,1,1,23,1,2,1,0.60219,0,Incongruent
22,13,1,1,24,2,1,1,0.4743,0,Neutral
23,13,1,1,25,1,2,1,0.41803,0,Incongruent
24,13,1,1,26,2,0,1,0.4137,0,Congruent
25,13,1,1,27,2,1,1,0.45711,0,Neutral
26,13,1,1,28,1,1,1,0.3993,0,Neutral
27,13,1,1,29,1,2,1,0.39837,0,Incongruent
28,13,1,1,30,1,1,0,0.37532,0,Neutral
29,13,1,1,31,1,0,1,0.38691,0,Congruent
30,13,1,1,32,2,2,0,0.31092,0,Incongruent
31,13,1,1,33,1,1,1,0.49678999999999995,0,Neutral
32,13,1,1,34,2,2,1,0.51177,0,Incongruent
33,13,1,1,35,2,0,1,0.47868,0,Congruent
34,13,1,1,36,1,2,1,0.5011,0,Incongruent
35,13,1,1,37,1,0,1,0.5231100000000001,0,Congruent
36,13,1,1,38,1,0,1,0.47403999999999996,0,Congruent
37,13,1,1,39,2,2,0,0.35028000000000004,0,Incongruent
38,13,1,1,40,2,2,1,0.56245,0,Incongruent
39,13,1,1,41,2,2,1,0.38654,0,Incongruent
40,13,1,1,42,1,1,1,0.49568,0,Neutral
41,13,1,1,43,2,0,1,0.42027,0,Congruent
42,13,1,1,44,2,1,1,0.38408000000000003,0,Neutral
43,13,1,1,45,2,1,1,0.33937,0,Neutral
44,13,1,1,46,1,2,1,0.45392,0,Incongruent
45,13,1,1,47,2,2,1,0.41292,0,Incongruent
46,13,1,1,48,1,0,0,0.40060999999999997,0,Congruent
47,13,1,1,49,2,1,1,0.3801,0,Neutral
48,13,1,1,50,2,1,1,0.44086000000000003,0,Neutral
49,13,1,1,51,1,0,1,0.41398,0,Congruent
50,13,1,1,52,2,2,1,0.38013,0,Incongruent
51,13,1,1,53,2,0,1,0.48425,0,Congruent
52,13,1,1,54,2,0,1,0.41175,0,Congruent
53,13,1,1,55,1,2,1,0.5281399999999999,0,Incongruent
54,13,1,1,56,2,2,1,0.52761,0,Incongruent
55,13,1,1,57,2,1,1,0.33351,0,Neutral
56,13,1,1,58,2,2,1,0.56921,0,Incongruent
57,13,1,1,59,1,2,0,0.44118,0,Incongruent
58,13,1,1,60,2,1,1,0.35821,0,Neutral
59,13,1,1,61,2,1,1,0.40913,0,Neutral
60,13,1,1,62,2,0,1,0.38186,0,Congruent
61,13,1,1,63,1,0,1,0.40045,0,Congruent
62,13,1,1,64,1,1,1,0.37482,0,Neutral
63,13,1,1,65,2,2,1,0.38479,0,Incongruent
64,13,1,1,66,2,1,1,0.35595,0,Neutral
65,13,1,1,67,1,2,1,0.43893999999999994,0,Incongruent
66,13,1,1,68,1,0,1,0.44428,0,Congruent
67,13,1,1,69,2,2,1,0.52993,0,Incongruent
68,13,1,1,70,2,2,1,0.40884000000000004,0,Incongruent
69,13,1,1,71,2,0,1,0.38802,0,Congruent
70,13,1,1,72,2,0,1,0.48917,0,Congruent
71,13,1,1,73,2,2,1,0.6130899999999999,0,Incongruent
72,13,1,1,74,2,2,1,0.38408000000000003,0,Incongruent
73,13,1,1,75,2,2,1,0.37906,0,Incongruent
74,13,1,1,76,2,1,1,0.48108,0,Neutral
75,13,1,1,77,1,1,1,0.49318999999999996,0,Neutral
76,13,1,1,78,2,0,1,0.5710000000000001,0,Congruent
77,13,1,1,79,1,2,1,0.42731,0,Incongruent
78,13,1,1,80,2,0,1,0.40684000000000003,0,Congruent
79,13,1,1,81,1,1,1,0.45085,0,Neutral
81,13,1,1,83,1,2,1,0.65449,0,Incongruent
82,13,1,1,84,1,1,1,0.5857,0,Neutral
83,13,1,1,85,1,0,1,0.45127,0,Congruent
84,13,1,1,86,1,2,1,0.5754100000000001,0,Incongruent
85,13,1,1,87,2,0,1,0.5049399999999999,0,Congruent
86,13,1,1,88,2,1,1,0.50485,0,Neutral
87,13,1,1,89,1,1,1,0.43788999999999995,0,Neutral
88,13,1,1,90,2,0,1,0.45228999999999997,0,Congruent
89,13,1,1,91,1,2,1,0.5751,0,Incongruent
90,13,1,1,92,2,0,1,0.44021000000000005,0,Congruent
91,13,1,1,93,1,2,1,0.42083999999999994,0,Incongruent
92,13,1,1,94,1,2,0,0.37614000000000003,0,Incongruent
93,13,1,1,95,1,1,1,0.53162,0,Neutral
94,13,1,1,96,2,0,1,0.45958999999999994,0,Congruent
95,13,1,1,97,2,2,1,0.48052,0,Incongruent
96,13,1,1,98,1,2,1,0.47003,0,Incongruent
97,13,1,1,99,2,0,1,0.42321000000000003,0,Congruent
98,13,1,1,100,1,0,1,0.5920000000000001,0,Congruent
99,13,1,1,101,2,0,1,0.43238999999999994,0,Congruent
100,13,1,1,102,1,0,1,0.44728999999999997,0,Congruent
101,13,1,1,103,1,0,1,0.49898000000000003,0,Congruent
102,13,1,1,104,2,0,1,0.41953999999999997,0,Congruent
103,13,1,1,105,1,1,1,0.42253,0,Neutral
104,13,1,1,106,1,1,1,0.50754,0,Neutral
105,13,1,1,107,2,1,1,0.40262,0,Neutral
106,13,1,1,108,2,1,1,0.40841,0,Neutral
107,13,1,1,109,1,0,1,0.46503,0,Congruent
108,13,1,1,110,2,1,1,0.32836,0,Neutral
109,13,1,1,111,1,0,1,0.31349,0,Congruent
110,13,1,1,112,1,1,1,0.42795,0,Neutral
111,13,1,1,113,2,2,1,0.4812,0,Incongruent
112,13,1,1,114,1,1,1,0.44693,0,Neutral
113,13,1,1,115,2,2,1,0.42636999999999997,0,Incongruent
114,13,1,1,116,1,0,1,0.29880999999999996,0,Congruent
115,13,1,1,117,2,0,1,0.37014,0,Congruent
116,13,1,1,118,1,2,1,0.35775999999999997,0,Incongruent
117,13,1,1,119,2,0,1,0.36066,0,Congruent
118,13,1,1,120,2,1,1,0.4617,0,Neutral
119,13,1,1,121,2,0,1,0.60065,0,Congruent
120,13,1,1,122,1,1,1,0.4014,0,Neutral
121,13,1,1,123,1,2,1,0.43655,0,Incongruent
122,13,1,1,124,1,0,1,0.43476000000000004,0,Congruent
123,13,1,1,125,1,2,1,0.55093,0,Incongruent
124,13,1,1,126,1,0,1,0.43086,0,Congruent
125,13,1,1,127,2,1,0,0.35731999999999997,0,Neutral
126,13,1,1,128,2,2,1,0.50371,0,Incongruent
127,13,1,1,129,2,2,1,0.63815,0,Incongruent
129,13,1,1,131,1,1,1,0.45171999999999995,0,Neutral
130,13,1,1,132,1,1,1,0.42411000000000004,0,Neutral
131,13,1,1,133,1,0,1,0.46075,0,Congruent
132,13,1,1,134,1,1,1,0.33834000000000003,0,Neutral
133,13,1,1,135,1,0,1,0.44485,0,Congruent
134,13,1,1,136,2,0,1,0.47293999999999997,0,Congruent
135,13,1,1,137,1,1,1,0.34364,0,Neutral
136,13,1,1,138,2,1,1,0.43496,0,Neutral
137,13,1,1,139,1,1,1,0.28945,0,Neutral
138,13,1,1,140,1,0,0,0.43332,0,Congruent
139,13,1,1,141,2,1,1,0.34033,0,Neutral
140,13,1,1,142,1,2,1,0.31456999999999996,0,Incongruent
141,13,1,1,143,2,2,1,0.29752,0,Incongruent
142,13,1,1,144,2,1,0,0.29225999999999996,0,Neutral
144,13,1,2,2,2,1,1,0.34646,0,Neutral
145,13,1,2,3,2,2,1,0.46152,0,Incongruent
146,13,1,2,4,1,2,1,0.48473,0,Incongruent
147,13,1,2,5,2,2,1,0.40093,0,Incongruent
148,13,1,2,6,1,0,1,0.34158,0,Congruent
149,13,1,2,7,2,2,1,0.36025999999999997,0,Incongruent
150,13,1,2,8,1,2,1,0.49203,0,Incongruent
151,13,1,2,9,1,0,1,0.49101000000000006,0,Congruent
152,13,1,2,10,1,1,1,0.40033,0,Neutral
153,13,1,2,11,2,2,0,0.36346,0,Incongruent
154,13,1,2,12,2,2,1,0.43151000000000006,0,Incongruent
155,13,1,2,13,1,2,1,0.37226,0,Incongruent
156,13,1,2,14,2,0,1,0.32674000000000003,0,Congruent
157,13,1,2,15,1,1,1,0.35398,0,Neutral
158,13,1,2,16,2,0,1,0.39608000000000004,0,Congruent
159,13,1,2,17,1,0,1,0.41798,0,Congruent
160,13,1,2,18,1,0,1,0.59707,0,Congruent
161,13,1,2,19,2,1,1,0.54179,0,Neutral
162,13,1,2,20,1,2,1,0.44523999999999997,0,Incongruent
163,13,1,2,21,1,1,1,0.57889,0,Neutral
164,13,1,2,22,1,1,1,0.37185,0,Neutral
165,13,1,2,23,2,0,1,0.51882,0,Congruent
167,13,1,2,25,1,1,1,0.40285,0,Neutral
168,13,1,2,26,1,1,1,0.35841,0,Neutral
169,13,1,2,27,2,0,1,0.4884,0,Congruent
170,13,1,2,28,2,1,1,0.40929,0,Neutral
171,13,1,2,29,1,2,1,0.40428000000000003,0,Incongruent
172,13,1,2,30,1,0,1,0.38384,0,Congruent
173,13,1,2,31,2,2,1,0.45929,0,Incongruent
174,13,1,2,32,1,0,1,0.43418,0,Congruent
175,13,1,2,33,1,2,1,0.5988600000000001,0,Incongruent
176,13,1,2,34,1,2,1,0.4713,0,Incongruent
177,13,1,2,35,2,1,1,0.54085,0,Neutral
178,13,1,2,36,2,0,1,0.45165,0,Congruent
179,13,1,2,37,1,1,1,0.42486999999999997,0,Neutral
180,13,1,2,38,2,2,1,0.42498,0,Incongruent
181,13,1,2,39,2,0,1,0.50767,0,Congruent
182,13,1,2,40,2,0,1,0.44081000000000004,0,Congruent
183,13,1,2,41,2,2,1,0.59773,0,Incongruent
184,13,1,2,42,1,1,1,0.53497,0,Neutral
185,13,1,2,43,2,0,1,0.455,0,Congruent
186,13,1,2,44,1,2,0,0.43646,0,Incongruent
187,13,1,2,45,1,1,1,0.42551000000000005,0,Neutral
188,13,1,2,46,2,1,1,0.34015,0,Neutral
189,13,1,2,47,2,0,0,0.23263000000000003,0,Congruent
190,13,1,2,48,1,2,1,0.47968999999999995,0,Incongruent
191,13,1,2,49,1,0,0,0.31077,0,Congruent
193,13,1,2,51,1,1,1,0.4126,0,Neutral
194,13,1,2,52,2,0,1,0.44727,0,Congruent
195,13,1,2,53,2,0,1,0.43687,0,Congruent
196,13,1,2,54,2,0,1,0.46843,0,Congruent
197,13,1,2,55,1,1,1,0.43905,0,Neutral
198,13,1,2,56,1,1,1,0.38791,0,Neutral
199,13,1,2,57,2,1,1,0.48034,0,Neutral
200,13,1,2,58,2,2,1,0.5663699999999999,0,Incongruent
201,13,1,2,59,1,0,1,0.34988,0,Congruent
202,13,1,2,60,1,0,1,0.32071,0,Congruent
203,13,1,2,61,2,1,1,0.45152,0,Neutral
204,13,1,2,62,1,1,0,0.39943,0,Neutral
205,13,1,2,63,2,1,1,0.41297,0,Neutral
206,13,1,2,64,2,0,1,0.46406000000000003,0,Congruent
207,13,1,2,65,2,2,1,0.43856999999999996,0,Incongruent
208,13,1,2,66,1,2,1,0.46656000000000003,0,Incongruent
209,13,1,2,67,2,2,1,0.48178999999999994,0,Incongruent
210,13,1,2,68,1,0,1,0.51881,0,Congruent
