,id,Session,Block,Trial,ArrowDirection,Condition,ACC,RT,Outlier,ConditionStr
0,10,2,1,2,1,2,1,0.48291999999999996,0,Incongruent
1,10,2,1,3,1,1,1,0.38748,0,Neutral
2,10,2,1,4,1,2,1,0.41165,0,Incongruent
3,10,2,1,5,1,1,1,0.37694,0,Neutral
4,10,2,1,6,2,2,1,0.39642,0,Incongruent
5,10,2,1,7,1,2,1,0.40931999999999996,0,Incongruent
6,10,2,1,8,2,0,1,0.30858,0,Congruent
7,10,2,1,9,2,0,1,0.40775,0,Congruent
8,10,2,1,10,1,0,1,0.38711,0,Congruent
9,10,2,1,11,2,1,1,0.31929,0,Neutral
10,10,2,1,12,2,1,1,0.37664000000000003,0,Neutral
11,10,2,1,13,1,1,1,0.42899,0,Neutral
12,10,2,1,14,2,1,1,0.3057,0,Neutral
13,10,2,1,15,1,0,1,0.33071999999999996,0,Congruent
14,10,2,1,16,1,1,1,0.35891999999999996,0,Neutral
15,10,2,1,17,2,2,1,0.33560999999999996,0,Incongruent
16,10,2,1,18,2,0,1,0.39534,0,Congruent
17,10,2,1,19,2,0,1,0.37534,0,Congruent
18,10,2,1,20,1,0,1,0.39436,0,Congruent
19,10,2,1,21,2,2,1,0.37381,0,Incongruent
20,10,2,1,22,2,1,1,0.36977,0,Neutral
21,10,2,1,23,1,2,0,0.36435,0,Incongruent
22,10,2,1,24,2,0,1,0.35853,0,Congruent
23,10,2,1,25,1,2,1,0.37121,0,Incongruent
24,10,2,1,26,1,0,1,0.42213999999999996,0,Congruent
25,10,2,1,27,2,2,1,0.35416,0,Incongruent
26,10,2,1,28,1,2,1,0.29996,0,Incongruent
27,10,2,1,29,1,2,0,0.31156,0,Incongruent
28,10,2,1,30,2,0,1,0.32035,0,Congruent
29,10,2,1,31,2,1,1,0.36441999999999997,0,Neutral
30,10,2,1,32,1,0,1,0.38871999999999995,0,Congruent
31,10,2,1,33,2,2,1,0.41783000000000003,0,Incongruent
32,10,2,1,34,2,1,1,0.40699,0,Neutral
33,10,2,1,35,1,0,1,0.37759000000000004,0,Congruent
34,10,2,1,36,1,2,0,0.33305,0,Incongruent
35,10,2,1,37,2,2,1,0.35424,0,Incongruent
36,10,2,1,38,2,0,1,0.36233000000000004,0,Congruent
37,10,2,1,39,1,0,1,0.41333000000000003,0,Congruent
38,10,2,1,40,2,2,1,0.40318000000000004,0,Incongruent
39,10,2,1,41,2,2,1,0.4133,0,Incongruent
40,10,2,1,42,1,1,1,0.4182,0,Neutral
41,10,2,1,43,1,0,1,0.3596,0,Congruent
42,10,2,1,44,2,0,1,0.34506,0,Congruent
43,10,2,1,45,1,2,1,0.38933,0,Incongruent
44,10,2,1,46,2,1,1,0.33753,0,Neutral
45,10,2,1,47,2,2,0,0.42667,0,Incongruent
46,10,2,1,48,2,1,1,0.35134,0,Neutral
47,10,2,1,49,2,1,1,0.29861,0,Neutral
48,10,2,1,50,2,1,1,0.33152,0,Neutral
49,10,2,1,51,2,2,0,0.37369,0,Incongruent
50,10,2,1,52,2,1,1,0.3406,0,Neutral
51,10,2,1,53,1,2,1,0.40415999999999996,0,Incongruent
52,10,2,1,54,1,1,1,0.38532,0,Neutral
53,10,2,1,55,1,2,1,0.38117,0,Incongruent
54,10,2,1,56,2,1,0,0.38463,0,Neutral
55,10,2,1,57,2,2,1,0.48275,0,Incongruent
56,10,2,1,58,1,0,1,0.32048000000000004,0,Congruent
57,10,2,1,59,2,2,1,0.47626999999999997,0,Incongruent
58,10,2,1,60,2,1,1,0.32287,0,Neutral
59,10,2,1,61,1,0,1,0.38752,0,Congruent
60,10,2,1,62,1,2,1,0.39363000000000004,0,Incongruent
61,10,2,1,63,2,0,1,0.37135999999999997,0,Congruent
62,10,2,1,64,1,2,1,0.38994,0,Incongruent
63,10,2,1,65,2,1,1,0.29795,0,Neutral
64,10,2,1,66,1,0,1,0.34169,0,Congruent
65,10,2,1,67,2,0,1,0.28624,0,Congruent
66,10,2,1,68,1,1,1,0.29577,0,Neutral
67,10,2,1,69,1,2,1,0.3939,0,Incongruent
68,10,2,1,70,2,0,1,0.28498,0,Congruent
69,10,2,1,71,1,2,1,0.31801999999999997,0,Incongruent
70,10,2,1,72,2,1,1,0.39169,0,Neutral
71,10,2,1,73,2,1,1,0.38866,0,Neutral
72,10,2,1,74,1,1,1,0.26202,0,Neutral
73,10,2,1,75,1,2,1,0.39497,0,Incongruent
74,10,2,1,76,1,1,1,0.41223000000000004,0,Neutral
75,10,2,1,77,2,0,1,0.35323000000000004,0,Congruent
76,10,2,1,78,2,2,0,0.3962,0,Incongruent
77,10,2,1,79,1,1,1,0.40831999999999996,0,Neutral
78,10,2,1,80,2,1,1,0.28358,0,Neutral
79,10,2,1,81,2,0,1,0.31734,0,Congruent
80,10,2,1,82,1,0,0,0.2945,0,Congruent
81,10,2,1,83,1,1,1,0.4156,0,Neutral
82,10,2,1,84,2,2,1,0.32549,0,Incongruent
83,10,2,1,85,1,2,0,0.25494,0,Incongruent
84,10,2,1,86,2,0,1,0.3191,0,Congruent
85,10,2,1,87,1,0,1,0.40285,0,Congruent
86,10,2,1,88,2,2,1,0.35748,0,Incongruent
87,10,2,1,89,2,2,0,0.29627,0,Incongruent
88,10,2,1,90,2,0,1,0.29923,0,Congruent
89,10,2,1,91,1,0,1,0.38065,0,Congruent
90,10,2,1,92,1,2,0,0.31221,0,Incongruent
91,10,2,1,93,2,1,1,0.33047,0,Neutral
92,10,2,1,94,2,1,1,0.37176,0,Neutral
93,10,2,1,95,1,1,0,0.28597,0,Neutral
94,10,2,1,96,1,1,1,0.41633000000000003,0,Neutral
95,10,2,1,97,1,0,0,0.32668,0,Congruent
96,10,2,1,98,2,2,1,0.3514,0,Incongruent
97,10,2,1,99,2,0,1,0.29008,0,Congruent
98,10,2,1,100,1,1,1,0.3877,0,Neutral
99,10,2,1,101,1,1,1,0.38255,0,Neutral
100,10,2,1,102,1,0,1,0.40396,0,Congruent
101,10,2,1,103,2,2,1,0.47102,0,Incongruent
102,10,2,1,104,1,2,1,0.39707,0,Incongruent
103,10,2,1,105,1,1,1,0.38391,0,Neutral
104,10,2,1,106,1,0,1,0.30815,0,Congruent
105,10,2,1,107,1,2,0,0.37324,0,Incongruent
106,10,2,1,108,1,1,1,0.36208,0,Neutral
107,10,2,1,109,2,0,1,0.34754,0,Congruent
108,10,2,1,110,2,0,1,0.36798000000000003,0,Congruent
109,10,2,1,111,1,2,1,0.4186,0,Incongruent
110,10,2,1,112,2,0,1,0.29769,0,Congruent
111,10,2,1,113,1,1,1,0.34504,0,Neutral
112,10,2,1,114,2,1,1,0.3478,0,Neutral
113,10,2,1,115,2,2,1,0.35767,0,Incongruent
114,10,2,1,116,1,0,1,0.3774,0,Congruent
115,10,2,1,117,1,0,1,0.36423,0,Congruent
116,10,2,1,118,1,0,1,0.29509,0,Congruent
117,10,2,1,119,1,2,1,0.28967,0,Incongruent
118,10,2,1,120,2,1,1,0.33899,0,Neutral
119,10,2,1,121,2,2,0,0.38999,0,Incongruent
120,10,2,1,122,2,2,1,0.40961000000000003,0,Incongruent
121,10,2,1,123,1,2,1,0.42122,0,Incongruent
122,10,2,1,124,1,0,1,0.44243999999999994,0,Congruent
123,10,2,1,125,1,0,1,0.35366,0,Congruent
124,10,2,1,126,2,0,1,0.37786,0,Congruent
125,10,2,1,127,1,1,1,0.34053,0,Neutral
126,10,2,1,128,2,2,1,0.32041,0,Incongruent
127,10,2,1,129,1,1,0,0.33197,0,Neutral
128,10,2,1,130,1,2,0,0.32511999999999996,0,Incongruent
129,10,2,1,131,2,1,1,0.31897,0,Neutral
130,10,2,1,132,1,0,1,0.37663,0,Congruent
131,10,2,1,133,1,1,1,0.34904,0,Neutral
132,10,2,1,134,1,1,1,0.33487,0,Neutral
133,10,2,1,135,2,0,1,0.4418,0,Congruent
134,10,2,1,136,2,1,1,0.34102,0,Neutral
135,10,2,1,137,2,1,1,0.24338,0,Neutral
136,10,2,1,138,2,0,1,0.24,0,Congruent
137,10,2,1,139,2,0,1,0.30635999999999997,0,Congruent
138,10,2,1,140,2,2,1,0.32343,0,Incongruent
139,10,2,1,141,1,0,0,0.37248000000000003,0,Congruent
140,10,2,1,142,1,1,1,0.37673,0,Neutral
141,10,2,1,143,2,2,1,0.40659,0,Incongruent
142,10,2,1,144,2,0,1,0.38616,0,Congruent
143,10,2,2,1,2,0,1,0.46701000000000004,0,Congruent
144,10,2,2,2,2,0,1,0.29749000000000003,0,Congruent
145,10,2,2,3,2,2,0,0.41803999999999997,0,Incongruent
146,10,2,2,4,1,1,1,0.39928,0,Neutral
147,10,2,2,5,1,2,0,0.41039,0,Incongruent
148,10,2,2,6,1,1,1,0.3755,0,Neutral
149,10,2,2,7,1,0,1,0.35389,0,Congruent
150,10,2,2,8,1,2,0,0.40402,0,Incongruent
151,10,2,2,9,1,0,1,0.30591,0,Congruent
152,10,2,2,10,2,1,1,0.37824,0,Neutral
153,10,2,2,11,1,1,1,0.31196999999999997,0,Neutral
154,10,2,2,12,2,1,1,0.27947,0,Neutral
155,10,2,2,13,2,1,0,0.30491,0,Neutral
156,10,2,2,14,1,2,1,0.38691,0,Incongruent
157,10,2,2,15,1,1,1,0.40779,0,Neutral
158,10,2,2,16,1,0,1,0.28333,0,Congruent
159,10,2,2,17,1,0,1,0.29194000000000003,0,Congruent
160,10,2,2,18,1,2,1,0.28565999999999997,0,Incongruent
161,10,2,2,19,2,2,1,0.35962,0,Incongruent
162,10,2,2,20,1,1,1,0.47395,0,Neutral
163,10,2,2,21,2,1,1,0.29574,0,Neutral
164,10,2,2,22,1,2,1,0.32074,0,Incongruent
165,10,2,2,23,2,0,1,0.26755999999999996,0,Congruent
166,10,2,2,24,1,1,0,0.35707,0,Neutral
167,10,2,2,25,2,0,1,0.31945999999999997,0,Congruent
168,10,2,2,26,2,2,1,0.51281,0,Incongruent
169,10,2,2,27,1,0,1,0.36709,0,Congruent
170,10,2,2,28,2,2,1,0.33232,0,Incongruent
171,10,2,2,29,1,0,1,0.3007,0,Congruent
172,10,2,2,30,2,2,1,0.28023000000000003,0,Incongruent
173,10,2,2,31,1,1,1,0.33660999999999996,0,Neutral
174,10,2,2,32,1,2,1,0.49051000000000006,0,Incongruent
175,10,2,2,33,1,2,1,0.37178,0,Incongruent
176,10,2,2,34,1,1,1,0.32558000000000004,0,Neutral
177,10,2,2,35,2,1,1,0.40145,0,Neutral
178,10,2,2,36,1,0,1,0.43418999999999996,0,Congruent
179,10,2,2,37,2,0,1,0.35168,0,Congruent
180,10,2,2,38,1,1,1,0.3875,0,Neutral
181,10,2,2,39,2,2,1,0.32719000000000004,0,Incongruent
182,10,2,2,40,2,0,1,0.32899,0,Congruent
183,10,2,2,41,2,2,1,0.25936,0,Incongruent
184,10,2,2,42,2,0,1,0.26008000000000003,0,Congruent
185,10,2,2,43,2,2,1,0.26807,0,Incongruent
186,10,2,2,44,1,0,1,0.46843999999999997,0,Congruent
187,10,2,2,45,1,1,1,0.33897,0,Neutral
188,10,2,2,46,2,1,0,0.25353000000000003,0,Neutral
189,10,2,2,47,2,0,1,0.34298,0,Congruent
190,10,2,2,48,1,2,0,0.28747,0,Incongruent
191,10,2,2,49,1,0,1,0.40262,0,Congruent
192,10,2,2,50,2,1,1,0.33366,0,Neutral
193,10,2,2,51,1,0,1,0.33705,0,Congruent
194,10,2,2,52,2,2,1,0.4533,0,Incongruent
195,10,2,2,53,1,0,0,0.2512,0,Congruent
196,10,2,2,54,1,0,1,0.40783,0,Congruent
197,10,2,2,55,1,1,1,0.35679,0,Neutral
198,10,2,2,56,1,0,1,0.28037,0,Congruent
199,10,2,2,57,2,0,1,0.37714000000000003,0,Congruent
200,10,2,2,58,1,1,1,0.30111,0,Neutral
201,10,2,2,59,2,0,1,0.2864,0,Congruent
202,10,2,2,60,1,2,1,0.28681,0,Incongruent
203,10,2,2,61,2,1,1,0.21761999999999998,0,Neutral
204,10,2,2,62,2,2,0,0.31256,0,Incongruent
205,10,2,2,63,2,0,1,0.40171,0,Congruent
206,10,2,2,64,2,2,1,0.36709,0,Incongruent
207,10,2,2,65,2,1,1,0.28474,0,Neutral
208,10,2,2,66,1,2,0,0.2909,0,Incongruent
209,10,2,2,67,2,0,1,0.29174,0,Congruent
210,10,2,2,68,2,1,1,0.40508,0,Neutral
211,10,2,2,69,1,1,0,0.30664,0,Neutral
212,10,2,2,70,2,0,1,0.35567,0,Congruent
213,10,2,2,71,2,1,1,0.29425,0,Neutral
214,10,2,2,72,2,2,1,0.35907,0,Incongruent
215,10,2,2,73,1,1,1,0.32216999999999996,0,Neutral
216,10,2,2,74,1,1,1,0.3103,0,Neutral
217,10,2,2,75,2,2,1,0.39408000000000004,0,Incongruent
218,10,2,2,76,1,2,1,0.5538,0,Incongruent
219,10,2,2,77,1,0,1,0.31468,0,Congruent
220,10,2,2,78,1,1,1,0.38883,0,Neutral
221,10,2,2,79,1,2,0,0.38337,0,Incongruent
222,10,2,2,80,1,1,1,0.30749,0,Neutral
223,10,2,2,81,1,1,1,0.35823,0,Neutral
225,10,2,2,83,2,1,1,0.44287,0,Neutral
227,10,2,2,85,1,2,1,0.54471,0,Incongruent
228,10,2,2,86,1,0,1,0.35312,0,Congruent
229,10,2,2,87,2,0,1,0.39419,0,Congruent
230,10,2,2,88,2,1,1,0.29466,0,Neutral
231,10,2,2,89,2,0,1,0.39377,0,Congruent
232,10,2,2,90,1,1,1,0.43791,0,Neutral
233,10,2,2,91,1,0,1,0.36883,0,Congruent
234,10,2,2,92,1,2,1,0.27642,0,Incongruent
235,10,2,2,93,1,0,1,0.29444000000000004,0,Congruent
236,10,2,2,94,2,2,1,0.47198,0,Incongruent
237,10,2,2,95,1,0,1,0.3741,0,Congruent
238,10,2,2,96,2,0,1,0.40851,0,Congruent
239,10,2,2,97,1,2,1,0.24481,0,Incongruent
240,10,2,2,98,2,0,1,0.25304,0,Congruent
241,10,2,2,99,2,1,0,0.30994,0,Neutral
242,10,2,2,100,2,1,1,0.39116,0,Neutral
243,10,2,2,101,1,2,0,0.49163999999999997,0,Incongruent
244,10,2,2,102,2,2,1,0.33778,0,Incongruent
245,10,2,2,103,2,2,1,0.45986000000000005,0,Incongruent
246,10,2,2,104,2,1,1,0.33125,0,Neutral
247,10,2,2,105,1,2,0,0.30007,0,Incongruent
248,10,2,2,106,2,1,1,0.30224,0,Neutral
249,10,2,2,107,2,0,1,0.3273,0,Congruent
250,10,2,2,108,2,2,1,0.37074,0,Incongruent
251,10,2,2,109,2,1,1,0.36525,0,Neutral
252,10,2,2,110,2,1,1,0.28128000000000003,0,Neutral
253,10,2,2,111,1,0,1,0.48122,0,Congruent
254,10,2,2,112,1,1,1,0.35986999999999997,0,Neutral
255,10,2,2,113,2,2,1,0.36436,0,Incongruent
256,10,2,2,114,2,0,1,0.3981,0,Congruent
257,10,2,2,115,2,0,1,0.30666,0,Congruent
258,10,2,2,116,2,1,1,0.30838000000000004,0,Neutral
259,10,2,2,117,1,1,0,0.28503,0,Neutral
260,10,2,2,118,2,0,1,0.3033,0,Congruent
262,10,2,2,120,2,2,1,0.37851999999999997,0,Incongruent
263,10,2,2,121,1,2,1,0.43738999999999995,0,Incongruent
264,10,2,2,122,1,2,1,0.50027,0,Incongruent
266,10,2,2,124,1,1,1,0.41056000000000004,0,Neutral
267,10,2,2,125,2,1,1,0.3588,0,Neutral
268,10,2,2,126,2,1,1,0.28989000000000004,0,Neutral
270,10,2,2,128,1,2,1,0.4107,0,Incongruent
271,10,2,2,129,2,1,1,0.40212,0,Neutral
272,10,2,2,130,1,1,1,0.37206,0,Neutral
273,10,2,2,131,2,2,1,0.41441000000000006,0,Incongruent
274,10,2,2,132,2,2,1,0.30115,0,Incongruent
275,10,2,2,133,2,1,1,0.3163,0,Neutral
276,10,2,2,134,1,2,1,0.43904,0,Incongruent
277,10,2,2,135,2,0,1,0.34681999999999996,0,Congruent
278,10,2,2,136,2,0,1,0.30937,0,Congruent
279,10,2,2,137,1,0,0,0.28817,0,Congruent
280,10,2,2,138,1,2,0,0.25716,0,Incongruent
281,10,2,2,139,1,0,1,0.32545,0,Congruent
282,10,2,2,140,1,0,1,0.32369000000000003,0,Congruent
283,10,2,2,141,1,1,1,0.31098000000000003,0,Neutral
284,10,2,2,142,1,2,1,0.29133000000000003,0,Incongruent
285,10,2,2,143,2,2,1,0.42856000000000005,0,Incongruent
286,10,2,2,144,2,2,1,0.39209,0,Incongruent
287,10,2,3,1,2,1,1,0.33335,0,Neutral
288,10,2,3,2,1,2,1,0.37425,0,Incongruent
289,10,2,3,3,1,1,1,0.34779,0,Neutral
290,10,2,3,4,1,0,1,0.33351,0,Congruent
291,10,2,3,5,2,2,1,0.40068000000000004,0,Incongruent
292,10,2,3,6,1,0,1,0.30080999999999997,0,Congruent
293,10,2,3,7,2,0,1,0.35741999999999996,0,Congruent
294,10,2,3,8,2,0,1,0.40121,0,Congruent
295,10,2,3,9,2,2,1,0.33173,0,Incongruent
296,10,2,3,10,2,1,1,0.29675999999999997,0,Neutral
297,10,2,3,11,1,2,0,0.32108000000000003,0,Incongruent
298,10,2,3,12,1,1,0,0.316,0,Neutral
299,10,2,3,13,2,1,1,0.36564,0,Neutral
300,10,2,3,14,1,1,1,0.42488000000000004,0,Neutral
301,10,2,3,15,1,1,1,0.43643000000000004,0,Neutral
302,10,2,3,16,2,0,1,0.36366,0,Congruent
303,10,2,3,17,1,0,1,0.41318,0,Congruent
304,10,2,3,18,1,2,0,0.40160999999999997,0,Incongruent
305,10,2,3,19,1,0,1,0.41315,0,Congruent
306,10,2,3,20,2,2,1,0.3856,0,Incongruent
307,10,2,3,21,2,1,1,0.37275,0,Neutral
308,10,2,3,22,1,1,1,0.40102,0,Neutral
309,10,2,3,23,1,0,1,0.45265,0,Congruent
311,10,2,3,25,2,0,1,0.37695,0,Congruent
312,10,2,3,26,1,1,1,0.41173000000000004,0,Neutral
313,10,2,3,27,1,2,1,0.55197,0,Incongruent
314,10,2,3,28,2,0,1,0.34318000000000004,0,Congruent
315,10,2,3,29,2,2,1,0.44488999999999995,0,Incongruent
316,10,2,3,30,2,1,1,0.28762,0,Neutral
317,10,2,3,31,2,0,1,0.32132,0,Congruent
318,10,2,3,32,2,2,1,0.39611,0,Incongruent
319,10,2,3,33,2,0,1,0.30262,0,Congruent
320,10,2,3,34,2,1,1,0.30466,0,Neutral
321,10,2,3,35,2,2,1,0.32229,0,Incongruent
322,10,2,3,36,1,1,1,0.49362,0,Neutral
323,10,2,3,37,2,1,0,0.33026,0,Neutral
324,10,2,3,38,1,1,1,0.46934,0,Neutral
325,10,2,3,39,1,0,1,0.37845,0,Congruent
326,10,2,3,40,1,1,1,0.3436,0,Neutral
327,10,2,3,41,2,1,1,0.5454,0,Neutral
329,10,2,3,43,2,0,1,0.37742,0,Congruent
330,10,2,3,44,2,2,1,0.42944,0,Incongruent
331,10,2,3,45,1,0,0,0.3213,0,Congruent
332,10,2,3,46,1,2,1,0.20362,0,Incongruent
333,10,2,3,47,1,1,1,0.29754,0,Neutral
334,10,2,3,48,2,2,0,0.39624000000000004,0,Incongruent
335,10,2,3,49,1,1,0,0.18284,0,Neutral
336,10,2,3,50,1,0,1,0.31963,0,Congruent
337,10,2,3,51,2,2,1,0.31274,0,Incongruent
338,10,2,3,52,1,0,0,0.28251,0,Congruent
340,10,2,3,54,2,0,1,0.33923000000000003,0,Congruent
341,10,2,3,55,2,0,1,0.34310999999999997,0,Congruent
342,10,2,3,56,1,2,0,0.24211,0,Incongruent
343,10,2,3,57,1,2,0,0.26483,0,Incongruent
344,10,2,3,58,2,0,1,0.40281999999999996,0,Congruent
345,10,2,3,59,1,2,0,0.32614,0,Incongruent
346,10,2,3,60,1,2,1,0.27366,0,Incongruent
347,10,2,3,61,2,0,1,0.33682,0,Congruent
348,10,2,3,62,2,1,0,0.23765999999999998,0,Neutral
349,10,2,3,63,1,2,0,0.31596,0,Incongruent
350,10,2,3,64,2,1,0,0.26611,0,Neutral
351,10,2,3,65,2,2,0,0.21745,0,Incongruent
352,10,2,3,66,2,0,1,0.15909,0,Congruent
353,10,2,3,67,1,2,1,0.38925,0,Incongruent
354,10,2,3,68,2,2,1,0.25736,0,Incongruent
355,10,2,3,69,1,2,1,0.26677,0,Incongruent
356,10,2,3,70,1,1,1,0.38624,0,Neutral
357,10,2,3,71,2,0,1,0.23755,0,Congruent
358,10,2,3,72,1,0,1,0.30134,0,Congruent
359,10,2,3,73,2,0,1,0.23265999999999998,0,Congruent
360,10,2,3,74,2,2,0,0.25483,0,Incongruent
361,10,2,3,75,2,2,1,0.31206,0,Incongruent
362,10,2,3,76,1,1,1,0.33773000000000003,0,Neutral
363,10,2,3,77,1,2,1,0.24405,0,Incongruent
364,10,2,3,78,2,1,0,0.26002,0,Neutral
365,10,2,3,79,2,2,1,0.25276,0,Incongruent
366,10,2,3,80,2,2,0,0.33636,0,Incongruent
367,10,2,3,81,1,2,1,0.35222,0,Incongruent
368,10,2,3,82,1,1,1,0.42717,0,Neutral
369,10,2,3,83,1,2,0,0.32108000000000003,0,Incongruent
370,10,2,3,84,2,2,1,0.35481999999999997,0,Incongruent
371,10,2,3,85,1,0,1,0.41215,0,Congruent
372,10,2,3,86,2,1,1,0.36956,0,Neutral
373,10,2,3,87,2,1,1,0.34815,0,Neutral
374,10,2,3,88,1,0,1,0.39073,0,Congruent
375,10,2,3,89,2,0,1,0.3552,0,Congruent
376,10,2,3,90,2,1,1,0.29454,0,Neutral
377,10,2,3,91,1,2,1,0.42431,0,Incongruent
378,10,2,3,92,2,1,1,0.29227,0,Neutral
379,10,2,3,93,1,0,1,0.31775,0,Congruent
380,10,2,3,94,1,1,1,0.39142,0,Neutral
381,10,2,3,95,2,2,1,0.37064,0,Incongruent
382,10,2,3,96,1,0,1,0.40129000000000004,0,Congruent
383,10,2,3,97,1,0,1,0.27376,0,Congruent
384,10,2,3,98,1,1,1,0.2528,0,Neutral
385,10,2,3,99,2,2,1,0.39873000000000003,0,Incongruent
386,10,2,3,100,1,2,0,0.27345,0,Incongruent
387,10,2,3,101,1,1,1,0.40216999999999997,0,Neutral
388,10,2,3,102,1,0,1,0.35005,0,Congruent
389,10,2,3,103,1,2,1,0.3216,0,Incongruent
390,10,2,3,104,2,0,1,0.34773000000000004,0,Congruent
391,10,2,3,105,1,0,1,0.36480999999999997,0,Congruent
392,10,2,3,106,2,0,1,0.32332,0,Congruent
393,10,2,3,107,2,2,1,0.27484000000000003,0,Incongruent
394,10,2,3,108,1,2,0,0.25297,0,Incongruent
395,10,2,3,109,2,2,1,0.30105,0,Incongruent
396,10,2,3,110,1,1,1,0.34215999999999996,0,Neutral
397,10,2,3,111,1,1,1,0.31338,0,Neutral
398,10,2,3,112,2,0,0,0.26661,0,Congruent
399,10,2,3,113,2,2,1,0.27609,0,Incongruent
400,10,2,3,114,1,0,1,0.38953000000000004,0,Congruent
402,10,2,3,116,1,1,1,0.4259,0,Neutral
403,10,2,3,117,1,0,1,0.34152,0,Congruent
404,10,2,3,118,1,2,1,0.25875,0,Incongruent
405,10,2,3,119,1,0,1,0.29778000000000004,0,Congruent
406,10,2,3,120,1,1,1,0.28311,0,Neutral
407,10,2,3,121,2,0,1,0.41188,0,Congruent
408,10,2,3,122,2,1,1,0.34507,0,Neutral
409,10,2,3,123,2,1,1,0.253,0,Neutral
410,10,2,3,124,1,0,0,0.25193000000000004,0,Congruent
411,10,2,3,125,2,1,1,0.34874,0,Neutral
412,10,2,3,126,1,1,1,0.35075,0,Neutral
413,10,2,3,127,2,0,1,0.36236,0,Congruent
414,10,2,3,128,1,2,0,0.26787,0,Incongruent
415,10,2,3,129,2,1,0,0.21458000000000002,0,Neutral
416,10,2,3,130,1,0,0,0.10072,0,Congruent
417,10,2,3,131,2,1,1,0.25818,0,Neutral
418,10,2,3,132,2,2,0,0.28329,0,Incongruent
419,10,2,3,133,2,0,1,0.276,0,Congruent
420,10,2,3,134,2,0,1,0.26118,0,Congruent
421,10,2,3,135,1,2,0,0.23739000000000002,0,Incongruent
422,10,2,3,136,2,2,1,0.20708000000000001,0,Incongruent
423,10,2,3,137,1,1,1,0.44558000000000003,0,Neutral
424,10,2,3,138,1,2,0,0.2435,0,Incongruent
425,10,2,3,139,1,0,0,0.29362,0,Congruent
426,10,2,3,140,2,1,1,0.30071,0,Neutral
427,10,2,3,141,1,1,0,0.30243000000000003,0,Neutral
428,10,2,3,142,2,1,1,0.28720999999999997,0,Neutral
429,10,2,3,143,2,1,1,0.3443,0,Neutral
430,10,2,3,144,1,0,1,0.33193,0,Congruent
431,10,2,4,1,1,1,1,0.5443,0,Neutral
432,10,2,4,2,2,2,1,0.30379,0,Incongruent
433,10,2,4,3,1,0,1,0.32995,0,Congruent
434,10,2,4,4,1,0,1,0.36298,0,Congruent
435,10,2,4,5,1,1,1,0.28676999999999997,0,Neutral
436,10,2,4,6,2,0,1,0.41689,0,Congruent
437,10,2,4,7,2,2,1,0.27614,0,Incongruent
438,10,2,4,8,1,0,1,0.26221,0,Congruent
439,10,2,4,9,2,1,1,0.3666,0,Neutral
440,10,2,4,10,1,1,1,0.27321,0,Neutral
441,10,2,4,11,2,0,1,0.33365,0,Congruent
442,10,2,4,12,1,0,1,0.28561,0,Congruent
443,10,2,4,13,1,2,0,0.25554,0,Incongruent
444,10,2,4,14,1,1,1,0.39910999999999996,0,Neutral
445,10,2,4,15,1,1,1,0.36436999999999997,0,Neutral
446,10,2,4,16,1,1,1,0.25544,0,Neutral
447,10,2,4,17,1,2,1,0.28181999999999996,0,Incongruent
448,10,2,4,18,2,0,1,0.35138,0,Congruent
449,10,2,4,19,2,0,1,0.34765999999999997,0,Congruent
450,10,2,4,20,2,1,1,0.2773,0,Neutral
451,10,2,4,21,1,0,0,0.24803000000000003,0,Congruent
452,10,2,4,22,2,1,1,0.2481,0,Neutral
453,10,2,4,23,2,0,1,0.35944,0,Congruent
454,10,2,4,24,1,2,1,0.41223999999999994,0,Incongruent
455,10,2,4,25,2,1,1,0.30196999999999996,0,Neutral
456,10,2,4,26,2,0,1,0.39978,0,Congruent
457,10,2,4,27,1,1,1,0.40399999999999997,0,Neutral
458,10,2,4,28,2,2,1,0.3297,0,Incongruent
459,10,2,4,29,1,1,1,0.38816,0,Neutral
460,10,2,4,30,1,1,1,0.40660999999999997,0,Neutral
461,10,2,4,31,2,2,1,0.37918,0,Incongruent
462,10,2,4,32,2,2,0,0.37432,0,Incongruent
463,10,2,4,33,2,0,1,0.25756999999999997,0,Congruent
464,10,2,4,34,2,1,1,0.24982,0,Neutral
465,10,2,4,35,1,2,1,0.4658,0,Incongruent
466,10,2,4,36,2,0,1,0.36135,0,Congruent
467,10,2,4,37,2,2,1,0.27618000000000004,0,Incongruent
468,10,2,4,38,1,2,0,0.30044,0,Incongruent
469,10,2,4,39,2,2,1,0.36629,0,Incongruent
470,10,2,4,40,2,2,0,0.28958,0,Incongruent
471,10,2,4,41,1,2,0,0.35561,0,Incongruent
472,10,2,4,42,1,1,1,0.39771999999999996,0,Neutral
473,10,2,4,43,2,1,1,0.33701,0,Neutral
474,10,2,4,44,1,0,1,0.40491,0,Congruent
475,10,2,4,45,1,1,0,0.30605,0,Neutral
476,10,2,4,46,2,1,1,0.40255,0,Neutral
478,10,2,4,48,1,2,1,0.44258000000000003,0,Incongruent
479,10,2,4,49,2,0,1,0.3991,0,Congruent
480,10,2,4,50,1,0,1,0.35524,0,Congruent
481,10,2,4,51,2,1,1,0.38126,0,Neutral
482,10,2,4,52,2,2,0,0.40338,0,Incongruent
483,10,2,4,53,1,0,1,0.42953,0,Congruent
484,10,2,4,54,1,2,1,0.4821,0,Incongruent
485,10,2,4,55,2,1,1,0.35259,0,Neutral
486,10,2,4,56,2,1,1,0.30813,0,Neutral
487,10,2,4,57,2,1,1,0.26169000000000003,0,Neutral
488,10,2,4,58,2,0,1,0.26898,0,Congruent
489,10,2,4,59,1,1,0,0.26932,0,Neutral
490,10,2,4,60,2,1,1,0.36054,0,Neutral
491,10,2,4,61,2,1,1,0.38676,0,Neutral
492,10,2,4,62,1,1,1,0.38887,0,Neutral
493,10,2,4,63,2,1,1,0.32242,0,Neutral
494,10,2,4,64,1,0,1,0.37938,0,Congruent
495,10,2,4,65,2,1,1,0.36595,0,Neutral
496,10,2,4,66,1,2,1,0.33737,0,Incongruent
497,10,2,4,67,1,2,1,0.4615,0,Incongruent
498,10,2,4,68,2,2,1,0.33896,0,Incongruent
499,10,2,4,69,1,2,1,0.39713000000000004,0,Incongruent
500,10,2,4,70,2,2,1,0.43343000000000004,0,Incongruent
501,10,2,4,71,2,0,1,0.30303,0,Congruent
502,10,2,4,72,2,0,1,0.27274,0,Congruent
503,10,2,4,73,2,1,1,0.29815,0,Neutral
504,10,2,4,74,1,2,1,0.41273999999999994,0,Incongruent
505,10,2,4,75,2,1,1,0.31188,0,Neutral
506,10,2,4,76,2,2,1,0.32836,0,Incongruent
507,10,2,4,77,1,2,1,0.41951000000000005,0,Incongruent
508,10,2,4,78,1,0,1,0.39056,0,Congruent
509,10,2,4,79,1,0,1,0.37323,0,Congruent
510,10,2,4,80,1,1,1,0.32611999999999997,0,Neutral
511,10,2,4,81,1,2,1,0.33969,0,Incongruent
512,10,2,4,82,1,2,1,0.30028,0,Incongruent
513,10,2,4,83,2,2,1,0.45341000000000004,0,Incongruent
514,10,2,4,84,1,2,1,0.30661,0,Incongruent
515,10,2,4,85,2,2,1,0.29299000000000003,0,Incongruent
516,10,2,4,86,2,1,1,0.37285999999999997,0,Neutral
517,10,2,4,87,2,0,1,0.33663000000000004,0,Congruent
518,10,2,4,88,1,1,1,0.42628999999999995,0,Neutral
519,10,2,4,89,1,1,0,0.31906,0,Neutral
520,10,2,4,90,2,0,1,0.34085,0,Congruent
521,10,2,4,91,2,0,1,0.38977,0,Congruent
522,10,2,4,92,1,0,1,0.32804,0,Congruent
523,10,2,4,93,1,0,1,0.3696,0,Congruent
524,10,2,4,94,1,1,1,0.31001,0,Neutral
525,10,2,4,95,2,1,1,0.40058,0,Neutral
526,10,2,4,96,2,1,1,0.37284,0,Neutral
527,10,2,4,97,1,1,1,0.39836,0,Neutral
528,10,2,4,98,2,2,0,0.38694,0,Incongruent
529,10,2,4,99,2,1,1,0.30299,0,Neutral
530,10,2,4,100,1,0,1,0.44928999999999997,0,Congruent
531,10,2,4,101,2,0,1,0.33271999999999996,0,Congruent
532,10,2,4,102,2,0,1,0.37682,0,Congruent
533,10,2,4,103,1,0,1,0.47628000000000004,0,Congruent
534,10,2,4,104,2,1,1,0.34686999999999996,0,Neutral
535,10,2,4,105,2,1,1,0.37271,0,Neutral
536,10,2,4,106,1,0,1,0.42372,0,Congruent
537,10,2,4,107,1,0,1,0.35757,0,Congruent
538,10,2,4,108,2,0,1,0.39134,0,Congruent
539,10,2,4,109,1,1,1,0.39509,0,Neutral
540,10,2,4,110,2,0,1,0.32696,0,Congruent
541,10,2,4,111,2,1,1,0.33807,0,Neutral
542,10,2,4,112,1,2,0,0.39625,0,Incongruent
543,10,2,4,113,1,0,1,0.46326000000000006,0,Congruent
544,10,2,4,114,2,2,1,0.31847,0,Incongruent
545,10,2,4,115,1,0,1,0.45598,0,Congruent
546,10,2,4,116,1,1,1,0.38827,0,Neutral
547,10,2,4,117,1,0,1,0.33791,0,Congruent
549,10,2,4,119,1,2,1,0.35845,0,Incongruent
550,10,2,4,120,1,0,1,0.37484,0,Congruent
551,10,2,4,121,2,2,1,0.39366999999999996,0,Incongruent
552,10,2,4,122,2,0,1,0.32666999999999996,0,Congruent
553,10,2,4,123,2,2,1,0.42543000000000003,0,Incongruent
554,10,2,4,124,2,0,1,0.30935,0,Congruent
555,10,2,4,125,1,2,1,0.42286999999999997,0,Incongruent
556,10,2,4,126,2,2,1,0.35475,0,Incongruent
557,10,2,4,127,2,0,1,0.38256,0,Congruent
558,10,2,4,128,1,2,1,0.32256,0,Incongruent
559,10,2,4,129,1,1,1,0.3636,0,Neutral
560,10,2,4,130,1,0,1,0.39123,0,Congruent
561,10,2,4,131,1,2,1,0.29818,0,Incongruent
562,10,2,4,132,1,2,1,0.29105,0,Incongruent
563,10,2,4,133,2,2,0,0.30178,0,Incongruent
564,10,2,4,134,1,0,1,0.40016,0,Congruent
565,10,2,4,135,2,0,1,0.34673000000000004,0,Congruent
566,10,2,4,136,1,0,1,0.39000999999999997,0,Congruent
567,10,2,4,137,2,0,1,0.28962,0,Congruent
568,10,2,4,138,2,2,0,0.34667,0,Incongruent
569,10,2,4,139,1,1,1,0.39859,0,Neutral
570,10,2,4,140,1,1,1,0.37684,0,Neutral
571,10,2,4,141,2,2,1,0.40610999999999997,0,Incongruent
572,10,2,4,142,2,2,1,0.3056,0,Incongruent
573,10,2,4,143,2,2,1,0.38765,0,Incongruent
574,10,2,4,144,1,1,0,0.27152,0,Neutral
575,10,2,5,1,2,1,1,0.36513,0,Neutral
576,10,2,5,2,1,1,1,0.37709000000000004,0,Neutral
577,10,2,5,3,2,0,1,0.34951,0,Congruent
578,10,2,5,4,1,0,1,0.3583,0,Congruent
579,10,2,5,5,1,2,0,0.36472,0,Incongruent
580,10,2,5,6,2,2,1,0.3747,0,Incongruent
581,10,2,5,7,1,1,1,0.39249,0,Neutral
582,10,2,5,8,2,0,1,0.33345,0,Congruent
583,10,2,5,9,2,1,1,0.39093,0,Neutral
584,10,2,5,10,2,1,1,0.29732,0,Neutral
585,10,2,5,11,2,0,1,0.30865,0,Congruent
586,10,2,5,12,2,1,1,0.29379,0,Neutral
587,10,2,5,13,2,1,1,0.36002,0,Neutral
588,10,2,5,14,2,0,1,0.29785,0,Congruent
589,10,2,5,15,1,1,1,0.45142,0,Neutral
590,10,2,5,16,2,2,1,0.31394,0,Incongruent
591,10,2,5,17,2,1,1,0.39489,0,Neutral
592,10,2,5,18,1,0,1,0.40641,0,Congruent
593,10,2,5,19,2,1,1,0.30796,0,Neutral
594,10,2,5,20,2,1,1,0.29185,0,Neutral
595,10,2,5,21,2,2,1,0.32618,0,Incongruent
596,10,2,5,22,2,1,1,0.32894,0,Neutral
597,10,2,5,23,1,0,1,0.41312,0,Congruent
598,10,2,5,24,1,1,1,0.35065999999999997,0,Neutral
599,10,2,5,25,2,0,1,0.38638,0,Congruent
600,10,2,5,26,2,2,1,0.40825,0,Incongruent
601,10,2,5,27,2,0,1,0.32222,0,Congruent
602,10,2,5,28,1,1,1,0.38051999999999997,0,Neutral
603,10,2,5,29,2,2,1,0.38554,0,Incongruent
604,10,2,5,30,1,1,1,0.39601,0,Neutral
605,10,2,5,31,2,2,1,0.38318,0,Incongruent
606,10,2,5,32,1,2,1,0.38763000000000003,0,Incongruent
607,10,2,5,33,2,2,1,0.33435,0,Incongruent
608,10,2,5,34,2,1,1,0.33789,0,Neutral
609,10,2,5,35,2,2,1,0.5081600000000001,0,Incongruent
610,10,2,5,36,2,2,1,0.28302,0,Incongruent
611,10,2,5,37,1,0,0,0.35691999999999996,0,Congruent
612,10,2,5,38,1,2,0,0.29548,0,Incongruent
613,10,2,5,39,1,0,1,0.47147,0,Congruent
614,10,2,5,40,2,0,1,0.35118,0,Congruent
615,10,2,5,41,2,1,1,0.27374,0,Neutral
616,10,2,5,42,1,1,1,0.52161,0,Neutral
617,10,2,5,43,2,2,1,0.38605,0,Incongruent
618,10,2,5,44,1,0,1,0.41457,0,Congruent
619,10,2,5,45,2,0,1,0.29172,0,Congruent
620,10,2,5,46,2,1,1,0.29102,0,Neutral
621,10,2,5,47,2,1,1,0.26771,0,Neutral
622,10,2,5,48,2,1,1,0.30145,0,Neutral
623,10,2,5,49,1,2,0,0.35125,0,Incongruent
624,10,2,5,50,1,0,1,0.39608000000000004,0,Congruent
625,10,2,5,51,2,2,1,0.48532,0,Incongruent
626,10,2,5,52,1,1,1,0.30794,0,Neutral
627,10,2,5,53,1,0,1,0.4056,0,Congruent
628,10,2,5,54,2,2,1,0.34042,0,Incongruent
629,10,2,5,55,2,1,0,0.2995,0,Neutral
630,10,2,5,56,1,2,1,0.38997,0,Incongruent
631,10,2,5,57,1,1,1,0.41698,0,Neutral
632,10,2,5,58,1,1,1,0.38189,0,Neutral
633,10,2,5,59,1,2,1,0.34538,0,Incongruent
634,10,2,5,60,2,2,0,0.34695,0,Incongruent
635,10,2,5,61,1,2,1,0.42381,0,Incongruent
636,10,2,5,62,1,2,1,0.42671000000000003,0,Incongruent
637,10,2,5,63,2,1,1,0.39271,0,Neutral
638,10,2,5,64,1,1,1,0.37842,0,Neutral
639,10,2,5,65,2,0,1,0.36745,0,Congruent
640,10,2,5,66,1,2,1,0.26916,0,Incongruent
641,10,2,5,67,1,2,1,0.43687,0,Incongruent
642,10,2,5,68,2,1,1,0.25588,0,Neutral
643,10,2,5,69,1,0,1,0.19193,0,Congruent
644,10,2,5,70,2,2,1,0.24946,0,Incongruent
645,10,2,5,71,1,0,1,0.23208,0,Congruent
646,10,2,5,72,1,2,1,0.39138,0,Incongruent
647,10,2,5,73,2,0,1,0.37204,0,Congruent
648,10,2,5,74,1,0,1,0.30351999999999996,0,Congruent
649,10,2,5,75,1,2,1,0.4402,0,Incongruent
650,10,2,5,76,2,1,0,0.35236999999999996,0,Neutral
651,10,2,5,77,1,2,1,0.37631,0,Incongruent
652,10,2,5,78,2,1,1,0.30867,0,Neutral
653,10,2,5,79,2,0,1,0.34949,0,Congruent
654,10,2,5,80,1,1,1,0.4417,0,Neutral
655,10,2,5,81,1,1,1,0.38958000000000004,0,Neutral
656,10,2,5,82,2,0,1,0.38561999999999996,0,Congruent
658,10,2,5,84,1,0,1,0.38322,0,Congruent
659,10,2,5,85,1,1,1,0.22079000000000001,0,Neutral
660,10,2,5,86,1,1,1,0.27438,0,Neutral
661,10,2,5,87,2,2,0,0.26911999999999997,0,Incongruent
662,10,2,5,88,2,0,1,0.37438,0,Congruent
663,10,2,5,89,1,1,0,0.26478,0,Neutral
664,10,2,5,90,2,0,1,0.35322,0,Congruent
665,10,2,5,91,2,2,1,0.25096999999999997,0,Incongruent
666,10,2,5,92,1,0,0,0.24481999999999998,0,Congruent
667,10,2,5,93,2,2,1,0.26871,0,Incongruent
668,10,2,5,94,2,0,1,0.37289,0,Congruent
669,10,2,5,95,2,1,0,0.29683000000000004,0,Neutral
670,10,2,5,96,2,1,1,0.48922,0,Neutral
671,10,2,5,97,1,0,0,0.31353000000000003,0,Congruent
672,10,2,5,98,2,2,1,0.32294,0,Incongruent
673,10,2,5,99,1,1,1,0.28519,0,Neutral
674,10,2,5,100,2,0,1,0.28711,0,Congruent
675,10,2,5,101,1,2,1,0.27104,0,Incongruent
676,10,2,5,102,2,0,1,0.28925,0,Congruent
677,10,2,5,103,2,0,1,0.44168,0,Congruent
678,10,2,5,104,1,0,1,0.34201,0,Congruent
679,10,2,5,105,1,2,0,0.28999,0,Incongruent
680,10,2,5,106,1,1,0,0.26718000000000003,0,Neutral
681,10,2,5,107,1,2,1,0.41192,0,Incongruent
682,10,2,5,108,2,1,1,0.37690999999999997,0,Neutral
683,10,2,5,109,1,1,1,0.41039,0,Neutral
684,10,2,5,110,2,0,1,0.52051,0,Congruent
685,10,2,5,111,1,2,0,0.35141999999999995,0,Incongruent
686,10,2,5,112,1,2,1,0.45732,0,Incongruent
687,10,2,5,113,2,1,1,0.38609,0,Neutral
688,10,2,5,114,1,0,1,0.379,0,Congruent
689,10,2,5,115,2,0,1,0.34252,0,Congruent
690,10,2,5,116,2,0,1,0.3855,0,Congruent
691,10,2,5,117,1,2,0,0.30095,0,Incongruent
692,10,2,5,118,1,1,1,0.39775,0,Neutral
693,10,2,5,119,2,0,1,0.25017,0,Congruent
694,10,2,5,120,1,2,1,0.37906,0,Incongruent
695,10,2,5,121,1,2,1,0.42200000000000004,0,Incongruent
696,10,2,5,122,1,1,1,0.41763999999999996,0,Neutral
697,10,2,5,123,1,0,1,0.29475,0,Congruent
698,10,2,5,124,1,0,1,0.28753,0,Congruent
699,10,2,5,125,1,2,1,0.27396,0,Incongruent
700,10,2,5,126,1,1,1,0.27593,0,Neutral
701,10,2,5,127,1,0,1,0.26859,0,Congruent
702,10,2,5,128,1,2,1,0.29363,0,Incongruent
703,10,2,5,129,1,0,1,0.29367,0,Congruent
704,10,2,5,130,2,2,0,0.23861999999999997,0,Incongruent
705,10,2,5,131,1,1,1,0.353,0,Neutral
706,10,2,5,132,2,2,1,0.33,0,Incongruent
707,10,2,5,133,2,2,1,0.42158999999999996,0,Incongruent
708,10,2,5,134,2,2,1,0.41847,0,Incongruent
709,10,2,5,135,2,2,1,0.26928,0,Incongruent
710,10,2,5,136,1,0,0,0.26299,0,Congruent
711,10,2,5,137,2,0,1,0.30351999999999996,0,Congruent
712,10,2,5,138,2,0,1,0.31304,0,Congruent
713,10,2,5,139,2,1,1,0.3795,0,Neutral
714,10,2,5,140,1,1,1,0.37401,0,Neutral
715,10,2,5,141,1,2,0,0.24875,0,Incongruent
716,10,2,5,142,1,0,1,0.38649,0,Congruent
717,10,2,5,143,1,0,1,0.37605,0,Congruent
718,10,2,5,144,1,0,1,0.26711,0,Congruent
0,11,2,1,2,1,1,1,0.45041000000000003,0,Neutral
1,11,2,1,3,1,0,1,0.46363000000000004,0,Congruent
3,11,2,1,5,2,2,1,0.5293899999999999,0,Incongruent
4,11,2,1,6,1,0,1,0.40197,0,Congruent
5,11,2,1,7,2,0,1,0.44435,0,Congruent
6,11,2,1,8,1,0,1,0.35326,0,Congruent
7,11,2,1,9,2,0,1,0.40429,0,Congruent
8,11,2,1,10,2,1,1,0.47236000000000006,0,Neutral
9,11,2,1,11,2,1,1,0.40995,0,Neutral
10,11,2,1,12,1,0,1,0.47441000000000005,0,Congruent
11,11,2,1,13,1,0,1,0.3536,0,Congruent
12,11,2,1,14,2,1,1,0.44572,0,Neutral
13,11,2,1,15,2,1,1,0.36946,0,Neutral
14,11,2,1,16,1,0,1,0.45224,0,Congruent
15,11,2,1,17,1,2,1,0.36321,0,Incongruent
16,11,2,1,18,2,0,1,0.39826,0,Congruent
17,11,2,1,19,2,2,1,0.52972,0,Incongruent
18,11,2,1,20,2,0,1,0.36841,0,Congruent
19,11,2,1,21,1,0,1,0.40506,0,Congruent
20,11,2,1,22,1,0,1,0.42632,0,Congruent
21,11,2,1,23,2,1,1,0.44482,0,Neutral
22,11,2,1,24,1,0,1,0.36109,0,Congruent
23,11,2,1,25,2,0,1,0.39796,0,Congruent
24,11,2,1,26,1,1,0,0.34614,0,Neutral
25,11,2,1,27,1,2,1,0.38815,0,Incongruent
26,11,2,1,28,2,2,1,0.45766,0,Incongruent
27,11,2,1,29,1,0,1,0.5886899999999999,0,Congruent
28,11,2,1,30,1,2,1,0.36596,0,Incongruent
29,11,2,1,31,2,2,0,0.32877,0,Incongruent
30,11,2,1,32,1,1,1,0.32556999999999997,0,Neutral
31,11,2,1,33,2,1,0,0.35765,0,Neutral
32,11,2,1,34,1,2,1,0.47297,0,Incongruent
33,11,2,1,35,2,1,1,0.42891999999999997,0,Neutral
34,11,2,1,36,2,0,1,0.35368,0,Congruent
35,11,2,1,37,1,0,1,0.38871999999999995,0,Congruent
36,11,2,1,38,1,2,1,0.45757,0,Incongruent
37,11,2,1,39,2,2,1,0.45488999999999996,0,Incongruent
38,11,2,1,40,1,2,1,0.33232,0,Incongruent
39,11,2,1,41,2,1,0,0.31684,0,Neutral
40,11,2,1,42,1,1,1,0.33725,0,Neutral
41,11,2,1,43,1,0,1,0.37890999999999997,0,Congruent
42,11,2,1,44,2,2,1,0.4388,0,Incongruent
43,11,2,1,45,2,2,0,0.31531,0,Incongruent
44,11,2,1,46,1,1,1,0.40619,0,Neutral
45,11,2,1,47,2,1,1,0.41042,0,Neutral
46,11,2,1,48,1,1,1,0.42153,0,Neutral
47,11,2,1,49,1,2,1,0.33725,0,Incongruent
48,11,2,1,50,1,0,1,0.34872,0,Congruent
49,11,2,1,51,2,0,1,0.44813000000000003,0,Congruent
50,11,2,1,52,2,1,1,0.34784,0,Neutral
51,11,2,1,53,2,0,1,0.3748,0,Congruent
52,11,2,1,54,1,1,1,0.42003999999999997,0,Neutral
53,11,2,1,55,1,1,1,0.35248,0,Neutral
54,11,2,1,56,1,2,1,0.53789,0,Incongruent
55,11,2,1,57,2,1,1,0.42573,0,Neutral
56,11,2,1,58,1,0,1,0.37333,0,Congruent
57,11,2,1,59,2,2,1,0.44873999999999997,0,Incongruent
58,11,2,1,60,1,1,1,0.38306999999999997,0,Neutral
59,11,2,1,61,2,2,1,0.48357,0,Incongruent
60,11,2,1,62,2,2,0,0.35256,0,Incongruent
61,11,2,1,63,1,1,1,0.37058,0,Neutral
62,11,2,1,64,2,2,1,0.43175,0,Incongruent
63,11,2,1,65,1,2,1,0.37395,0,Incongruent
64,11,2,1,66,1,0,1,0.34412,0,Congruent
65,11,2,1,67,2,2,1,0.45871999999999996,0,Incongruent
66,11,2,1,68,1,2,1,0.40734000000000004,0,Incongruent
67,11,2,1,69,2,1,1,0.4045,0,Neutral
68,11,2,1,70,1,2,1,0.40057,0,Incongruent
69,11,2,1,71,1,0,1,0.38945,0,Congruent
70,11,2,1,72,1,0,1,0.3357,0,Congruent
71,11,2,1,73,1,1,1,0.32275,0,Neutral
72,11,2,1,74,2,2,1,0.42908,0,Incongruent
73,11,2,1,75,2,0,1,0.40153,0,Congruent
74,11,2,1,76,1,1,1,0.43828999999999996,0,Neutral
75,11,2,1,77,2,0,1,0.41723999999999994,0,Congruent
76,11,2,1,78,1,0,1,0.43846,0,Congruent
77,11,2,1,79,1,2,1,0.47631,0,Incongruent
78,11,2,1,80,2,2,1,0.36189,0,Incongruent
79,11,2,1,81,1,2,1,0.38187,0,Incongruent
80,11,2,1,82,1,2,1,0.27199,0,Incongruent
81,11,2,1,83,2,0,0,0.36845,0,Congruent
82,11,2,1,84,1,1,1,0.29373,0,Neutral
83,11,2,1,85,1,2,1,0.29466,0,Incongruent
84,11,2,1,86,1,2,1,0.35214,0,Incongruent
85,11,2,1,87,2,1,1,0.43628,0,Neutral
86,11,2,1,88,2,0,1,0.40864,0,Congruent
87,11,2,1,89,2,1,1,0.37261,0,Neutral
88,11,2,1,90,2,2,0,0.37574,0,Incongruent
89,11,2,1,91,2,0,1,0.33085,0,Congruent
90,11,2,1,92,2,0,1,0.319,0,Congruent
91,11,2,1,93,1,1,1,0.37463,0,Neutral
92,11,2,1,94,2,0,1,0.39529000000000003,0,Congruent
93,11,2,1,95,2,1,1,0.43967,0,Neutral
94,11,2,1,96,2,2,1,0.50735,0,Incongruent
95,11,2,1,97,2,1,1,0.37845,0,Neutral
96,11,2,1,98,2,0,1,0.38956,0,Congruent
97,11,2,1,99,1,1,1,0.39561999999999997,0,Neutral
98,11,2,1,100,1,1,1,0.30062,0,Neutral
99,11,2,1,101,2,0,1,0.415,0,Congruent
100,11,2,1,102,1,2,1,0.42683000000000004,0,Incongruent
101,11,2,1,103,2,2,1,0.41721,0,Incongruent
102,11,2,1,104,1,0,1,0.33992,0,Congruent
103,11,2,1,105,2,1,1,0.36956999999999995,0,Neutral
105,11,2,1,107,1,1,1,0.46695,0,Neutral
106,11,2,1,108,1,0,1,0.32966999999999996,0,Congruent
107,11,2,1,109,1,2,1,0.49483,0,Incongruent
108,11,2,1,110,1,1,1,0.33015,0,Neutral
109,11,2,1,111,2,1,1,0.44454,0,Neutral
110,11,2,1,112,1,1,1,0.39374000000000003,0,Neutral
111,11,2,1,113,1,2,1,0.42175,0,Incongruent
112,11,2,1,114,2,0,1,0.4669,0,Congruent
114,11,2,1,116,2,2,1,0.35359,0,Incongruent
115,11,2,1,117,2,1,1,0.29953,0,Neutral
116,11,2,1,118,2,2,1,0.32642,0,Incongruent
117,11,2,1,119,2,1,1,0.34473000000000004,0,Neutral
119,11,2,1,121,2,0,1,0.54422,0,Congruent
120,11,2,1,122,2,0,1,0.43923999999999996,0,Congruent
121,11,2,1,123,1,1,1,0.42306000000000005,0,Neutral
122,11,2,1,124,1,2,1,0.48057,0,Incongruent
123,11,2,1,125,1,2,1,0.56548,0,Incongruent
124,11,2,1,126,2,2,0,0.50379,0,Incongruent
125,11,2,1,127,2,2,0,0.3889,0,Incongruent
126,11,2,1,128,1,0,1,0.314,0,Congruent
127,11,2,1,129,1,0,1,0.33815,0,Congruent
128,11,2,1,130,2,1,1,0.35869,0,Neutral
129,11,2,1,131,2,2,0,0.44064,0,Incongruent
130,11,2,1,132,2,0,1,0.39704,0,Congruent
131,11,2,1,133,2,2,1,0.34744,0,Incongruent
132,11,2,1,134,2,1,1,0.37315,0,Neutral
133,11,2,1,135,1,0,0,0.36066,0,Congruent
134,11,2,1,136,1,2,1,0.48376,0,Incongruent
135,11,2,1,137,1,0,1,0.35456,0,Congruent
136,11,2,1,138,2,0,1,0.47617,0,Congruent
137,11,2,1,139,2,1,1,0.32237,0,Neutral
138,11,2,1,140,1,1,1,0.3876,0,Neutral
139,11,2,1,141,2,1,1,0.55253,0,Neutral
140,11,2,1,142,2,0,1,0.36758,0,Congruent
141,11,2,1,143,1,1,1,0.41878999999999994,0,Neutral
142,11,2,1,144,1,2,1,0.3918,0,Incongruent
144,11,2,2,2,1,2,1,0.42103999999999997,0,Incongruent
145,11,2,2,3,2,2,1,0.38718,0,Incongruent
146,11,2,2,4,2,2,1,0.37427,0,Incongruent
147,11,2,2,5,1,2,1,0.41681,0,Incongruent
148,11,2,2,6,2,2,1,0.34892,0,Incongruent
149,11,2,2,7,1,1,0,0.36701999999999996,0,Neutral
150,11,2,2,8,1,1,1,0.37151,0,Neutral
151,11,2,2,9,1,0,1,0.42278000000000004,0,Congruent
152,11,2,2,10,2,1,0,0.36422,0,Neutral
153,11,2,2,11,2,1,1,0.38306,0,Neutral
154,11,2,2,12,2,1,1,0.3873,0,Neutral
155,11,2,2,13,1,2,1,0.38953000000000004,0,Incongruent
156,11,2,2,14,2,1,1,0.35381999999999997,0,Neutral
157,11,2,2,15,2,1,1,0.44461000000000006,0,Neutral
158,11,2,2,16,2,0,1,0.36979,0,Congruent
159,11,2,2,17,1,2,1,0.42927,0,Incongruent
160,11,2,2,18,2,0,1,0.43306000000000006,0,Congruent
161,11,2,2,19,2,2,1,0.5756399999999999,0,Incongruent
162,11,2,2,20,1,2,1,0.3842,0,Incongruent
163,11,2,2,21,1,2,1,0.38593,0,Incongruent
164,11,2,2,22,1,0,1,0.35879,0,Congruent
165,11,2,2,23,2,0,1,0.43349,0,Congruent
166,11,2,2,24,1,1,1,0.46287,0,Neutral
167,11,2,2,25,1,1,1,0.38232,0,Neutral
168,11,2,2,26,1,0,1,0.36064,0,Congruent
169,11,2,2,27,1,2,0,0.35577,0,Incongruent
170,11,2,2,28,2,1,1,0.3979,0,Neutral
171,11,2,2,29,2,0,1,0.35388000000000003,0,Congruent
172,11,2,2,30,2,0,1,0.37404,0,Congruent
173,11,2,2,31,2,0,0,0.31166,0,Congruent
174,11,2,2,32,2,1,1,0.42696000000000006,0,Neutral
175,11,2,2,33,2,2,1,0.49493000000000004,0,Incongruent
176,11,2,2,34,1,1,1,0.40564,0,Neutral
177,11,2,2,35,1,1,1,0.48878,0,Neutral
178,11,2,2,36,2,2,1,0.5345300000000001,0,Incongruent
179,11,2,2,37,2,2,1,0.51975,0,Incongruent
180,11,2,2,38,2,2,1,0.47762,0,Incongruent
181,11,2,2,39,1,0,1,0.5157,0,Congruent
182,11,2,2,40,1,0,1,0.46618999999999994,0,Congruent
183,11,2,2,41,2,2,1,0.50589,0,Incongruent
184,11,2,2,42,1,1,1,0.39948,0,Neutral
185,11,2,2,43,1,2,1,0.49117,0,Incongruent
186,11,2,2,44,1,0,1,0.40275,0,Congruent
187,11,2,2,45,2,2,1,0.55797,0,Incongruent
188,11,2,2,46,2,2,1,0.56404,0,Incongruent
189,11,2,2,47,2,0,1,0.47757,0,Congruent
190,11,2,2,48,1,2,1,0.38841,0,Incongruent
191,11,2,2,49,1,2,1,0.40071,0,Incongruent
192,11,2,2,50,1,1,1,0.39458000000000004,0,Neutral
193,11,2,2,51,2,1,1,0.47941000000000006,0,Neutral
194,11,2,2,52,1,0,1,0.47746000000000005,0,Congruent
195,11,2,2,53,2,1,1,0.38706,0,Neutral
196,11,2,2,54,2,2,1,0.5898800000000001,0,Incongruent
197,11,2,2,55,2,0,1,0.40759,0,Congruent
198,11,2,2,56,1,1,1,0.43425,0,Neutral
199,11,2,2,57,2,2,1,0.5442600000000001,0,Incongruent
200,11,2,2,58,1,0,1,0.4404,0,Congruent
201,11,2,2,59,2,1,1,0.45337,0,Neutral
202,11,2,2,60,1,0,1,0.57728,0,Congruent
203,11,2,2,61,1,1,1,0.34526999999999997,0,Neutral
204,11,2,2,62,2,0,1,0.45975,0,Congruent
205,11,2,2,63,2,0,1,0.48283999999999994,0,Congruent
206,11,2,2,64,1,0,1,0.37494,0,Congruent
207,11,2,2,65,1,1,1,0.38011999999999996,0,Neutral
208,11,2,2,66,2,2,1,0.45553,0,Incongruent
209,11,2,2,67,2,1,1,0.41292,0,Neutral
210,11,2,2,68,1,0,1,0.33699,0,Congruent
211,11,2,2,69,2,1,1,0.41828999999999994,0,Neutral
212,11,2,2,70,1,1,1,0.41543,0,Neutral
213,11,2,2,71,1,0,1,0.33305999999999997,0,Congruent
214,11,2,2,72,2,1,1,0.44713,0,Neutral
215,11,2,2,73,1,1,1,0.33889,0,Neutral
216,11,2,2,74,1,1,1,0.31740999999999997,0,Neutral
217,11,2,2,75,1,1,1,0.33566999999999997,0,Neutral
218,11,2,2,76,1,1,1,0.30795,0,Neutral
219,11,2,2,77,1,2,1,0.31790999999999997,0,Incongruent
220,11,2,2,78,2,2,1,0.44953000000000004,0,Incongruent
221,11,2,2,79,1,2,1,0.35636,0,Incongruent
222,11,2,2,80,1,2,1,0.48694,0,Incongruent
223,11,2,2,81,2,0,1,0.49341999999999997,0,Congruent
224,11,2,2,82,1,2,1,0.34081,0,Incongruent
225,11,2,2,83,2,0,1,0.58336,0,Congruent
226,11,2,2,84,1,2,1,0.31911,0,Incongruent
227,11,2,2,85,2,0,1,0.45692,0,Congruent
228,11,2,2,86,2,1,1,0.44568,0,Neutral
229,11,2,2,87,2,0,1,0.37895999999999996,0,Congruent
230,11,2,2,88,1,0,1,0.46402,0,Congruent
231,11,2,2,89,2,2,1,0.45295,0,Incongruent
232,11,2,2,90,1,2,1,0.36279,0,Incongruent
233,11,2,2,91,2,1,1,0.60375,0,Neutral
234,11,2,2,92,2,1,1,0.46143,0,Neutral
235,11,2,2,93,1,0,1,0.4208,0,Congruent
236,11,2,2,94,1,1,1,0.3767,0,Neutral
237,11,2,2,95,1,0,1,0.35477,0,Congruent
238,11,2,2,96,2,0,0,0.46157,0,Congruent
239,11,2,2,97,2,2,1,0.38716,0,Incongruent
240,11,2,2,98,1,2,0,0.31211,0,Incongruent
241,11,2,2,99,2,0,1,0.40941,0,Congruent
242,11,2,2,100,2,1,1,0.36036999999999997,0,Neutral
243,11,2,2,101,2,1,1,0.3216,0,Neutral
244,11,2,2,102,1,2,0,0.31532,0,Incongruent
245,11,2,2,103,2,2,1,0.53988,0,Incongruent
246,11,2,2,104,1,0,1,0.40379,0,Congruent
247,11,2,2,105,1,2,1,0.2875,0,Incongruent
248,11,2,2,106,2,1,1,0.4027,0,Neutral
249,11,2,2,107,1,1,1,0.34275,0,Neutral
250,11,2,2,108,1,2,1,0.51508,0,Incongruent
251,11,2,2,109,1,1,1,0.36824,0,Neutral
252,11,2,2,110,1,0,1,0.33773000000000003,0,Congruent
253,11,2,2,111,1,1,1,0.33247,0,Neutral
254,11,2,2,112,1,2,1,0.36699,0,Incongruent
255,11,2,2,113,1,1,1,0.35536,0,Neutral
256,11,2,2,114,2,2,1,0.45547,0,Incongruent
257,11,2,2,115,2,1,1,0.29822,0,Neutral
258,11,2,2,116,1,1,1,0.39132,0,Neutral
259,11,2,2,117,2,1,1,0.29685,0,Neutral
260,11,2,2,118,2,0,1,0.42513999999999996,0,Congruent
261,11,2,2,119,1,2,1,0.38261999999999996,0,Incongruent
262,11,2,2,120,1,0,1,0.39494,0,Congruent
263,11,2,2,121,2,0,1,0.3364,0,Congruent
264,11,2,2,122,2,2,1,0.45557,0,Incongruent
265,11,2,2,123,1,0,1,0.38251999999999997,0,Congruent
266,11,2,2,124,2,0,1,0.45813999999999994,0,Congruent
267,11,2,2,125,2,0,1,0.47048999999999996,0,Congruent
268,11,2,2,126,1,1,1,0.38919000000000004,0,Neutral
269,11,2,2,127,1,0,1,0.35176999999999997,0,Congruent
270,11,2,2,128,2,0,1,0.41845,0,Congruent
271,11,2,2,129,2,2,1,0.46483,0,Incongruent
272,11,2,2,130,2,2,1,0.38235,0,Incongruent
273,11,2,2,131,1,2,1,0.34460999999999997,0,Incongruent
274,11,2,2,132,1,0,1,0.29951,0,Congruent
275,11,2,2,133,2,0,0,0.33284,0,Congruent
276,11,2,2,134,2,1,1,0.40754,0,Neutral
277,11,2,2,135,1,0,1,0.4041,0,Congruent
278,11,2,2,136,2,2,1,0.30451999999999996,0,Incongruent
279,11,2,2,137,2,1,1,0.43282,0,Neutral
280,11,2,2,138,1,1,1,0.36065,0,Neutral
281,11,2,2,139,2,1,1,0.45798,0,Neutral
282,11,2,2,140,1,0,1,0.35975999999999997,0,Congruent
283,11,2,2,141,1,0,1,0.28224,0,Congruent
284,11,2,2,142,1,2,1,0.46676000000000006,0,Incongruent
285,11,2,2,143,2,0,1,0.41062,0,Congruent
286,11,2,2,144,2,2,1,0.40435,0,Incongruent
287,11,2,3,1,1,2,1,0.55735,0,Incongruent
288,11,2,3,2,2,1,1,0.45158999999999994,0,Neutral
289,11,2,3,3,1,2,1,0.36938000000000004,0,Incongruent
290,11,2,3,4,1,2,1,0.4445,0,Incongruent
291,11,2,3,5,1,1,1,0.37704,0,Neutral
292,11,2,3,6,2,1,1,0.39616999999999997,0,Neutral
293,11,2,3,7,2,1,1,0.37015,0,Neutral
294,11,2,3,8,1,2,1,0.45346000000000003,0,Incongruent
295,11,2,3,9,1,0,1,0.32965,0,Congruent
296,11,2,3,10,1,2,1,0.47663,0,Incongruent
297,11,2,3,11,2,0,0,0.33789,0,Congruent
298,11,2,3,12,2,0,1,0.43649,0,Congruent
299,11,2,3,13,2,2,1,0.49698000000000003,0,Incongruent
300,11,2,3,14,1,1,1,0.38343,0,Neutral
301,11,2,3,15,1,2,1,0.41893,0,Incongruent
302,11,2,3,16,1,0,1,0.35965,0,Congruent
303,11,2,3,17,1,1,1,0.41007,0,Neutral
304,11,2,3,18,2,1,1,0.40723000000000004,0,Neutral
305,11,2,3,19,2,0,0,0.42006000000000004,0,Congruent
306,11,2,3,20,1,0,1,0.44808000000000003,0,Congruent
307,11,2,3,21,2,2,1,0.45371999999999996,0,Incongruent
308,11,2,3,22,1,2,1,0.39443,0,Incongruent
309,11,2,3,23,2,2,1,0.51877,0,Incongruent
310,11,2,3,24,2,1,1,0.44564,0,Neutral
311,11,2,3,25,1,0,1,0.36980999999999997,0,Congruent
312,11,2,3,26,2,1,1,0.32568,0,Neutral
313,11,2,3,27,1,2,1,0.44861999999999996,0,Incongruent
314,11,2,3,28,1,0,1,0.37381,0,Congruent
315,11,2,3,29,1,2,1,0.31605,0,Incongruent
316,11,2,3,30,1,0,1,0.35469,0,Congruent
318,11,2,3,32,1,2,1,0.436,0,Incongruent
319,11,2,3,33,2,2,1,0.43913,0,Incongruent
320,11,2,3,34,1,0,1,0.35649000000000003,0,Congruent
321,11,2,3,35,1,0,1,0.28196,0,Congruent
322,11,2,3,36,2,2,1,0.40956,0,Incongruent
323,11,2,3,37,1,0,1,0.45357,0,Congruent
324,11,2,3,38,1,0,1,0.33097,0,Congruent
325,11,2,3,39,1,0,1,0.3487,0,Congruent
326,11,2,3,40,2,0,1,0.5434899999999999,0,Congruent
327,11,2,3,41,2,1,1,0.39923000000000003,0,Neutral
328,11,2,3,42,2,0,1,0.35373000000000004,0,Congruent
329,11,2,3,43,2,0,1,0.35091,0,Congruent
330,11,2,3,44,1,1,0,0.37533,0,Neutral
331,11,2,3,45,1,2,1,0.46866,0,Incongruent
332,11,2,3,46,2,0,1,0.43246999999999997,0,Congruent
333,11,2,3,47,2,2,0,0.38331,0,Incongruent
334,11,2,3,48,2,0,1,0.36911,0,Congruent
335,11,2,3,49,1,0,1,0.42161000000000004,0,Congruent
336,11,2,3,50,1,2,1,0.37267,0,Incongruent
337,11,2,3,51,1,1,1,0.38971,0,Neutral
338,11,2,3,52,2,1,1,0.40073000000000003,0,Neutral
339,11,2,3,53,1,2,1,0.52003,0,Incongruent
340,11,2,3,54,2,2,1,0.44395,0,Incongruent
341,11,2,3,55,1,2,1,0.36803,0,Incongruent
342,11,2,3,56,2,1,1,0.39545,0,Neutral
343,11,2,3,57,2,0,1,0.47189,0,Congruent
344,11,2,3,58,1,0,1,0.4545,0,Congruent
345,11,2,3,59,2,1,1,0.41939,0,Neutral
346,11,2,3,60,1,1,1,0.34488,0,Neutral
347,11,2,3,61,2,0,1,0.39386,0,Congruent
348,11,2,3,62,1,0,1,0.36663,0,Congruent
349,11,2,3,63,1,0,1,0.35612,0,Congruent
350,11,2,3,64,1,1,1,0.4038,0,Neutral
351,11,2,3,65,2,0,1,0.44237,0,Congruent
352,11,2,3,66,2,0,1,0.51037,0,Congruent
353,11,2,3,67,1,2,1,0.34742,0,Incongruent
354,11,2,3,68,1,1,1,0.33554,0,Neutral
355,11,2,3,69,2,0,1,0.42527,0,Congruent
356,11,2,3,70,2,1,1,0.37316,0,Neutral
357,11,2,3,71,1,1,1,0.41671,0,Neutral
358,11,2,3,72,1,1,1,0.38284,0,Neutral
359,11,2,3,73,2,1,1,0.40985,0,Neutral
360,11,2,3,74,1,1,1,0.38299999999999995,0,Neutral
361,11,2,3,75,2,2,1,0.46584,0,Incongruent
362,11,2,3,76,1,1,1,0.37663,0,Neutral
363,11,2,3,77,2,1,1,0.36299000000000003,0,Neutral
364,11,2,3,78,1,1,1,0.34165,0,Neutral
365,11,2,3,79,2,1,1,0.41656000000000004,0,Neutral
366,11,2,3,80,2,2,1,0.5645600000000001,0,Incongruent
367,11,2,3,81,2,1,1,0.52541,0,Neutral
368,11,2,3,82,1,2,1,0.38900999999999997,0,Incongruent
369,11,2,3,83,1,2,0,0.40762,0,Incongruent
370,11,2,3,84,2,1,1,0.42907,0,Neutral
371,11,2,3,85,1,2,1,0.34699,0,Incongruent
372,11,2,3,86,2,1,1,0.43762,0,Neutral
373,11,2,3,87,1,0,1,0.3998,0,Congruent
374,11,2,3,88,2,2,1,0.50789,0,Incongruent
375,11,2,3,89,1,1,1,0.38,0,Neutral
376,11,2,3,90,2,2,1,0.3657,0,Incongruent
377,11,2,3,91,2,2,1,0.43498000000000003,0,Incongruent
379,11,2,3,93,2,2,1,0.44742,0,Incongruent
380,11,2,3,94,2,2,1,0.42102,0,Incongruent
381,11,2,3,95,2,2,1,0.4588,0,Incongruent
382,11,2,3,96,2,2,1,0.46307,0,Incongruent
383,11,2,3,97,2,0,1,0.34976,0,Congruent
384,11,2,3,98,2,2,1,0.5268,0,Incongruent
385,11,2,3,99,1,1,1,0.45588,0,Neutral
386,11,2,3,100,2,2,1,0.44405,0,Incongruent
387,11,2,3,101,2,0,1,0.38423,0,Congruent
388,11,2,3,102,2,2,1,0.41401000000000004,0,Incongruent
389,11,2,3,103,2,1,1,0.39450999999999997,0,Neutral
390,11,2,3,104,1,0,1,0.45285,0,Congruent
391,11,2,3,105,1,1,1,0.5472100000000001,0,Neutral
392,11,2,3,106,2,0,1,0.56172,0,Congruent
393,11,2,3,107,1,2,1,0.49737,0,Incongruent
394,11,2,3,108,2,1,1,0.43305,0,Neutral
395,11,2,3,109,2,0,1,0.4374,0,Congruent
396,11,2,3,110,1,2,0,0.33063000000000003,0,Incongruent
397,11,2,3,111,2,1,1,0.35605,0,Neutral
398,11,2,3,112,2,2,1,0.32924000000000003,0,Incongruent
399,11,2,3,113,2,0,1,0.32234,0,Congruent
400,11,2,3,114,2,1,1,0.3309,0,Neutral
401,11,2,3,115,2,2,1,0.31055,0,Incongruent
402,11,2,3,116,2,1,1,0.3694,0,Neutral
403,11,2,3,117,2,0,1,0.34714,0,Congruent
404,11,2,3,118,1,0,1,0.60006,0,Congruent
405,11,2,3,119,2,2,1,0.46213999999999994,0,Incongruent
406,11,2,3,120,1,1,1,0.41188,0,Neutral
407,11,2,3,121,1,0,1,0.4572,0,Congruent
408,11,2,3,122,1,0,1,0.40698,0,Congruent
409,11,2,3,123,2,0,1,0.42848,0,Congruent
410,11,2,3,124,1,0,0,0.28693,0,Congruent
411,11,2,3,125,1,1,1,0.43306999999999995,0,Neutral
412,11,2,3,126,1,1,1,0.38853000000000004,0,Neutral
413,11,2,3,127,1,2,1,0.36918,0,Incongruent
414,11,2,3,128,2,2,1,0.4517,0,Incongruent
415,11,2,3,129,1,2,1,0.5461699999999999,0,Incongruent
416,11,2,3,130,2,1,1,0.43266000000000004,0,Neutral
417,11,2,3,131,2,0,1,0.47816000000000003,0,Congruent
419,11,2,3,133,1,1,1,0.44851,0,Neutral
420,11,2,3,134,2,0,1,0.40597,0,Congruent
421,11,2,3,135,1,0,1,0.55466,0,Congruent
422,11,2,3,136,2,2,1,0.35518,0,Incongruent
423,11,2,3,137,2,1,1,0.35802,0,Neutral
424,11,2,3,138,1,0,1,0.48127,0,Congruent
425,11,2,3,139,1,1,1,0.42208999999999997,0,Neutral
427,11,2,3,141,1,0,1,0.45382,0,Congruent
428,11,2,3,142,2,0,0,0.276,0,Congruent
429,11,2,3,143,1,2,1,0.35604,0,Incongruent
430,11,2,3,144,1,1,1,0.36018,0,Neutral
431,11,2,4,1,2,2,1,0.51077,0,Incongruent
432,11,2,4,2,1,2,1,0.45899999999999996,0,Incongruent
433,11,2,4,3,1,1,1,0.35178000000000004,0,Neutral
434,11,2,4,4,2,2,1,0.43525,0,Incongruent
435,11,2,4,5,2,0,1,0.36825,0,Congruent
436,11,2,4,6,2,1,1,0.34008,0,Neutral
437,11,2,4,7,2,1,1,0.3581,0,Neutral
438,11,2,4,8,2,1,1,0.31235999999999997,0,Neutral
439,11,2,4,9,1,0,1,0.40368000000000004,0,Congruent
440,11,2,4,10,2,2,1,0.39889,0,Incongruent
441,11,2,4,11,2,1,1,0.35613,0,Neutral
442,11,2,4,12,2,0,1,0.43146999999999996,0,Congruent
443,11,2,4,13,2,1,1,0.36219,0,Neutral
444,11,2,4,14,1,2,1,0.51213,0,Incongruent
445,11,2,4,15,1,1,1,0.34974,0,Neutral
446,11,2,4,16,1,2,1,0.40793,0,Incongruent
447,11,2,4,17,2,0,1,0.37955,0,Congruent
448,11,2,4,18,1,0,1,0.3594,0,Congruent
449,11,2,4,19,2,0,1,0.29788000000000003,0,Congruent
450,11,2,4,20,1,0,1,0.33136,0,Congruent
451,11,2,4,21,2,2,0,0.38391,0,Incongruent
452,11,2,4,22,1,2,1,0.37925,0,Incongruent
453,11,2,4,23,1,0,1,0.3819,0,Congruent
454,11,2,4,24,1,1,1,0.36935,0,Neutral
455,11,2,4,25,2,2,0,0.39919,0,Incongruent
456,11,2,4,26,1,2,1,0.35351,0,Incongruent
457,11,2,4,27,1,0,1,0.45883,0,Congruent
458,11,2,4,28,1,2,1,0.61024,0,Incongruent
459,11,2,4,29,2,1,1,0.34606,0,Neutral
460,11,2,4,30,1,2,1,0.52466,0,Incongruent
461,11,2,4,31,1,1,1,0.42788999999999994,0,Neutral
462,11,2,4,32,2,2,1,0.42553,0,Incongruent
463,11,2,4,33,2,2,1,0.42289,0,Incongruent
464,11,2,4,34,1,0,1,0.56188,0,Congruent
465,11,2,4,35,2,0,1,0.42808,0,Congruent
466,11,2,4,36,2,1,1,0.39831,0,Neutral
467,11,2,4,37,1,1,1,0.44281000000000004,0,Neutral
468,11,2,4,38,1,1,1,0.5352,0,Neutral
469,11,2,4,39,1,1,1,0.43088000000000004,0,Neutral
470,11,2,4,40,1,0,1,0.3489,0,Congruent
471,11,2,4,41,2,1,1,0.41563,0,Neutral
472,11,2,4,42,2,1,1,0.42035,0,Neutral
473,11,2,4,43,1,0,1,0.43946,0,Congruent
474,11,2,4,44,1,2,1,0.33318000000000003,0,Incongruent
475,11,2,4,45,1,2,1,0.44623,0,Incongruent
476,11,2,4,46,1,0,1,0.36661,0,Congruent
477,11,2,4,47,2,1,1,0.48026,0,Neutral
478,11,2,4,48,1,1,1,0.5422899999999999,0,Neutral
479,11,2,4,49,1,0,1,0.42103999999999997,0,Congruent
480,11,2,4,50,2,0,1,0.44061000000000006,0,Congruent
481,11,2,4,51,2,0,1,0.49456999999999995,0,Congruent
482,11,2,4,52,2,0,1,0.39676,0,Congruent
483,11,2,4,53,2,2,1,0.54766,0,Incongruent
485,11,2,4,55,2,0,1,0.45735,0,Congruent
486,11,2,4,56,1,2,1,0.46461,0,Incongruent
487,11,2,4,57,2,1,0,0.39859,0,Neutral
488,11,2,4,58,1,0,1,0.33747,0,Congruent
489,11,2,4,59,1,0,1,0.38833,0,Congruent
490,11,2,4,60,2,1,1,0.46458,0,Neutral
491,11,2,4,61,1,2,1,0.42067,0,Incongruent
492,11,2,4,62,2,1,1,0.3771,0,Neutral
493,11,2,4,63,1,2,1,0.38151999999999997,0,Incongruent
494,11,2,4,64,2,0,1,0.30027,0,Congruent
495,11,2,4,65,1,0,1,0.41122,0,Congruent
496,11,2,4,66,1,2,0,0.31115,0,Incongruent
497,11,2,4,67,2,1,1,0.37062,0,Neutral
498,11,2,4,68,1,0,1,0.55643,0,Congruent
499,11,2,4,69,1,2,0,0.36324,0,Incongruent
500,11,2,4,70,1,1,1,0.38344,0,Neutral
501,11,2,4,71,2,2,1,0.48223,0,Incongruent
502,11,2,4,72,1,1,1,0.5051100000000001,0,Neutral
503,11,2,4,73,2,0,1,0.37031,0,Congruent
504,11,2,4,74,2,0,1,0.46638999999999997,0,Congruent
505,11,2,4,75,2,0,1,0.33539,0,Congruent
506,11,2,4,76,2,2,1,0.30105,0,Incongruent
508,11,2,4,78,2,2,1,0.46135,0,Incongruent
509,11,2,4,79,2,0,1,0.30086,0,Congruent
510,11,2,4,80,1,2,1,0.55787,0,Incongruent
511,11,2,4,81,2,0,1,0.42863,0,Congruent
512,11,2,4,82,2,0,1,0.38569000000000003,0,Congruent
513,11,2,4,83,1,0,1,0.55035,0,Congruent
514,11,2,4,84,1,1,1,0.42835,0,Neutral
515,11,2,4,85,1,1,1,0.38738,0,Neutral
516,11,2,4,86,2,0,1,0.47847,0,Congruent
517,11,2,4,87,1,0,1,0.42806000000000005,0,Congruent
518,11,2,4,88,1,2,0,0.5363100000000001,0,Incongruent
519,11,2,4,89,2,0,1,0.40748,0,Congruent
520,11,2,4,90,2,1,1,0.32406999999999997,0,Neutral
521,11,2,4,91,1,0,1,0.46126999999999996,0,Congruent
522,11,2,4,92,1,0,1,0.41308,0,Congruent
523,11,2,4,93,2,2,1,0.46685,0,Incongruent
524,11,2,4,94,2,0,1,0.54235,0,Congruent
525,11,2,4,95,2,1,1,0.38955,0,Neutral
526,11,2,4,96,2,1,1,0.39300999999999997,0,Neutral
527,11,2,4,97,1,0,1,0.4451,0,Congruent
528,11,2,4,98,1,0,1,0.48226,0,Congruent
529,11,2,4,99,1,2,1,0.42428,0,Incongruent
530,11,2,4,100,1,2,1,0.38245999999999997,0,Incongruent
531,11,2,4,101,2,1,1,0.47475,0,Neutral
532,11,2,4,102,2,0,1,0.34273000000000003,0,Congruent
533,11,2,4,103,1,2,1,0.53122,0,Incongruent
534,11,2,4,104,2,0,1,0.42493000000000003,0,Congruent
535,11,2,4,105,2,1,1,0.43693000000000004,0,Neutral
536,11,2,4,106,1,1,1,0.46479,0,Neutral
537,11,2,4,107,1,2,1,0.51108,0,Incongruent
538,11,2,4,108,1,2,1,0.43666000000000005,0,Incongruent
539,11,2,4,109,2,1,1,0.49751000000000006,0,Neutral
540,11,2,4,110,1,0,1,0.44908000000000003,0,Congruent
541,11,2,4,111,2,1,1,0.40671999999999997,0,Neutral
542,11,2,4,112,2,2,1,0.33733,0,Incongruent
543,11,2,4,113,2,2,1,0.37974,0,Incongruent
544,11,2,4,114,1,2,1,0.48786,0,Incongruent
545,11,2,4,115,2,2,1,0.46951000000000004,0,Incongruent
546,11,2,4,116,1,0,1,0.4673,0,Congruent
547,11,2,4,117,2,0,1,0.52182,0,Congruent
550,11,2,4,120,2,1,1,0.38372,0,Neutral
551,11,2,4,121,1,1,1,0.42165,0,Neutral
552,11,2,4,122,2,2,1,0.5202100000000001,0,Incongruent
553,11,2,4,123,2,2,1,0.36677,0,Incongruent
554,11,2,4,124,2,1,1,0.37806999999999996,0,Neutral
555,11,2,4,125,1,1,1,0.6046199999999999,0,Neutral
556,11,2,4,126,1,0,1,0.48603,0,Congruent
557,11,2,4,127,2,2,1,0.5716100000000001,0,Incongruent
558,11,2,4,128,1,1,1,0.4285,0,Neutral
559,11,2,4,129,1,1,1,0.36196999999999996,0,Neutral
560,11,2,4,130,1,1,1,0.40565999999999997,0,Neutral
561,11,2,4,131,1,1,1,0.36825,0,Neutral
562,11,2,4,132,2,2,1,0.43493999999999994,0,Incongruent
563,11,2,4,133,2,2,1,0.31128,0,Incongruent
564,11,2,4,134,1,1,1,0.46,0,Neutral
565,11,2,4,135,1,1,1,0.41516000000000003,0,Neutral
566,11,2,4,136,2,2,1,0.50764,0,Incongruent
567,11,2,4,137,1,2,1,0.47497,0,Incongruent
568,11,2,4,138,2,0,1,0.44761999999999996,0,Congruent
569,11,2,4,139,2,0,1,0.34108,0,Congruent
570,11,2,4,140,2,1,1,0.40962,0,Neutral
571,11,2,4,141,2,2,1,0.38897,0,Incongruent
572,11,2,4,142,1,1,1,0.43991,0,Neutral
573,11,2,4,143,1,0,1,0.37621,0,Congruent
574,11,2,4,144,1,1,1,0.3598,0,Neutral
575,11,2,5,1,2,1,1,0.45565,0,Neutral
576,11,2,5,2,1,1,1,0.38118,0,Neutral
577,11,2,5,3,1,2,1,0.36086,0,Incongruent
578,11,2,5,4,2,2,1,0.40239,0,Incongruent
579,11,2,5,5,2,1,1,0.35175,0,Neutral
580,11,2,5,6,2,2,0,0.41058999999999996,0,Incongruent
581,11,2,5,7,2,1,1,0.29583000000000004,0,Neutral
582,11,2,5,8,2,1,1,0.48877,0,Neutral
583,11,2,5,9,1,2,1,0.47118999999999994,0,Incongruent
584,11,2,5,10,2,0,1,0.39596,0,Congruent
585,11,2,5,11,2,0,1,0.37805,0,Congruent
586,11,2,5,12,1,0,1,0.46883,0,Congruent
587,11,2,5,13,1,0,1,0.48901999999999995,0,Congruent
588,11,2,5,14,1,2,1,0.35233000000000003,0,Incongruent
589,11,2,5,15,2,0,0,0.29759,0,Congruent
590,11,2,5,16,2,1,1,0.41251000000000004,0,Neutral
591,11,2,5,17,2,0,1,0.34459,0,Congruent
592,11,2,5,18,1,0,1,0.44223999999999997,0,Congruent
593,11,2,5,19,2,1,0,0.27218000000000003,0,Neutral
594,11,2,5,20,1,2,1,0.33731,0,Incongruent
595,11,2,5,21,1,1,1,0.36427,0,Neutral
596,11,2,5,22,1,1,1,0.36735999999999996,0,Neutral
597,11,2,5,23,2,2,1,0.402,0,Incongruent
598,11,2,5,24,1,0,1,0.31888,0,Congruent
599,11,2,5,25,2,1,1,0.33626999999999996,0,Neutral
600,11,2,5,26,2,2,0,0.29943000000000003,0,Incongruent
601,11,2,5,27,1,2,1,0.28558,0,Incongruent
602,11,2,5,28,1,2,1,0.3204,0,Incongruent
603,11,2,5,29,1,0,1,0.28849,0,Congruent
604,11,2,5,30,2,0,1,0.45783,0,Congruent
605,11,2,5,31,1,1,1,0.31179,0,Neutral
606,11,2,5,32,1,2,0,0.3375,0,Incongruent
607,11,2,5,33,2,2,1,0.28326,0,Incongruent
608,11,2,5,34,2,2,1,0.3104,0,Incongruent
609,11,2,5,35,1,2,1,0.43788,0,Incongruent
610,11,2,5,36,1,0,1,0.38697,0,Congruent
611,11,2,5,37,2,2,1,0.473,0,Incongruent
612,11,2,5,38,2,2,1,0.5097,0,Incongruent
613,11,2,5,39,1,0,1,0.55495,0,Congruent
614,11,2,5,40,2,0,1,0.44343,0,Congruent
615,11,2,5,41,1,1,1,0.38439,0,Neutral
616,11,2,5,42,1,1,1,0.40502,0,Neutral
617,11,2,5,43,2,1,0,0.31329,0,Neutral
618,11,2,5,44,1,1,1,0.35574,0,Neutral
619,11,2,5,45,2,0,1,0.43768999999999997,0,Congruent
620,11,2,5,46,1,2,1,0.49848000000000003,0,Incongruent
622,11,2,5,48,2,2,1,0.40468000000000004,0,Incongruent
623,11,2,5,49,1,1,1,0.41566000000000003,0,Neutral
624,11,2,5,50,1,0,1,0.33321999999999996,0,Congruent
625,11,2,5,51,2,1,1,0.39089,0,Neutral
626,11,2,5,52,2,1,0,0.30941,0,Neutral
627,11,2,5,53,2,0,1,0.4148,0,Congruent
628,11,2,5,54,1,0,1,0.37654,0,Congruent
629,11,2,5,55,1,1,1,0.45146000000000003,0,Neutral
630,11,2,5,56,1,0,1,0.41696000000000005,0,Congruent
631,11,2,5,57,1,1,1,0.34885,0,Neutral
632,11,2,5,58,2,0,0,0.34464,0,Congruent
633,11,2,5,59,2,2,1,0.45164,0,Incongruent
634,11,2,5,60,2,0,1,0.35173000000000004,0,Congruent
635,11,2,5,61,1,1,1,0.4023,0,Neutral
636,11,2,5,62,1,2,0,0.39276,0,Incongruent
637,11,2,5,63,1,0,1,0.45951000000000003,0,Congruent
638,11,2,5,64,1,1,1,0.40028,0,Neutral
639,11,2,5,65,1,2,1,0.34979,0,Incongruent
640,11,2,5,66,1,0,1,0.3589,0,Congruent
641,11,2,5,67,2,2,1,0.3876,0,Incongruent
642,11,2,5,68,1,2,1,0.44753000000000004,0,Incongruent
643,11,2,5,69,1,1,0,0.38008000000000003,0,Neutral
644,11,2,5,70,1,0,1,0.47865,0,Congruent
645,11,2,5,71,2,1,0,0.5977600000000001,0,Neutral
646,11,2,5,72,2,2,1,0.3896,0,Incongruent
647,11,2,5,73,1,1,1,0.36896,0,Neutral
648,11,2,5,74,2,2,1,0.3882,0,Incongruent
649,11,2,5,75,2,1,1,0.44792,0,Neutral
650,11,2,5,76,2,0,0,0.3121,0,Congruent
651,11,2,5,77,1,1,1,0.4246,0,Neutral
652,11,2,5,78,1,2,1,0.41339,0,Incongruent
653,11,2,5,79,1,0,1,0.35381999999999997,0,Congruent
655,11,2,5,81,1,1,1,0.3849,0,Neutral
656,11,2,5,82,2,1,1,0.53878,0,Neutral
657,11,2,5,83,1,1,1,0.43483999999999995,0,Neutral
658,11,2,5,84,1,0,1,0.4095,0,Congruent
659,11,2,5,85,2,0,1,0.39685,0,Congruent
660,11,2,5,86,2,2,1,0.31506,0,Incongruent
661,11,2,5,87,2,2,1,0.32997,0,Incongruent
662,11,2,5,88,1,0,0,0.34739000000000003,0,Congruent
664,11,2,5,90,2,2,1,0.42446999999999996,0,Incongruent
665,11,2,5,91,1,0,1,0.42923999999999995,0,Congruent
666,11,2,5,92,2,0,1,0.4417,0,Congruent
667,11,2,5,93,2,0,1,0.42346000000000006,0,Congruent
668,11,2,5,94,1,0,1,0.4467,0,Congruent
670,11,2,5,96,2,0,1,0.45861,0,Congruent
671,11,2,5,97,1,0,1,0.44886000000000004,0,Congruent
672,11,2,5,98,1,2,1,0.382,0,Incongruent
673,11,2,5,99,1,0,1,0.33025,0,Congruent
674,11,2,5,100,2,2,1,0.57203,0,Incongruent
675,11,2,5,101,2,1,1,0.27639,0,Neutral
676,11,2,5,102,1,2,0,0.29318,0,Incongruent
677,11,2,5,103,2,1,1,0.31301999999999996,0,Neutral
678,11,2,5,104,2,2,1,0.32119000000000003,0,Incongruent
679,11,2,5,105,1,2,1,0.2914,0,Incongruent
680,11,2,5,106,1,1,1,0.30179,0,Neutral
681,11,2,5,107,1,0,1,0.29362,0,Congruent
682,11,2,5,108,1,0,1,0.33668000000000003,0,Congruent
683,11,2,5,109,2,0,1,0.41908999999999996,0,Congruent
684,11,2,5,110,2,1,1,0.34248,0,Neutral
685,11,2,5,111,2,2,1,0.27441,0,Incongruent
686,11,2,5,112,1,0,1,0.36496999999999996,0,Congruent
687,11,2,5,113,2,0,1,0.43096999999999996,0,Congruent
688,11,2,5,114,1,2,1,0.34707,0,Incongruent
689,11,2,5,115,1,2,0,0.29475999999999997,0,Incongruent
690,11,2,5,116,1,1,1,0.42285,0,Neutral
691,11,2,5,117,2,1,1,0.28331,0,Neutral
692,11,2,5,118,2,1,1,0.41465,0,Neutral
694,11,2,5,120,1,2,0,0.33173,0,Incongruent
695,11,2,5,121,2,1,1,0.36561,0,Neutral
696,11,2,5,122,1,1,1,0.5041,0,Neutral
697,11,2,5,123,2,2,1,0.34439000000000003,0,Incongruent
698,11,2,5,124,1,2,1,0.38704,0,Incongruent
699,11,2,5,125,2,0,0,0.40643,0,Congruent
700,11,2,5,126,2,2,0,0.29698,0,Incongruent
701,11,2,5,127,1,1,1,0.34664,0,Neutral
702,11,2,5,128,2,0,1,0.55043,0,Congruent
703,11,2,5,129,2,0,1,0.59763,0,Congruent
704,11,2,5,130,2,1,1,0.36895,0,Neutral
705,11,2,5,131,1,2,1,0.30537,0,Incongruent
706,11,2,5,132,1,2,1,0.3087,0,Incongruent
707,11,2,5,133,2,1,0,0.35034,0,Neutral
708,11,2,5,134,1,1,1,0.36801,0,Neutral
709,11,2,5,135,2,0,1,0.43477,0,Congruent
710,11,2,5,136,2,0,1,0.28963,0,Congruent
711,11,2,5,137,2,0,1,0.31506999999999996,0,Congruent
712,11,2,5,138,1,1,1,0.45143,0,Neutral
713,11,2,5,139,1,2,1,0.51246,0,Incongruent
714,11,2,5,140,2,1,0,0.36078000000000005,0,Neutral
715,11,2,5,141,2,0,0,0.30113,0,Congruent
716,11,2,5,142,2,2,0,0.30763,0,Incongruent
717,11,2,5,143,2,1,1,0.39299,0,Neutral
718,11,2,5,144,2,2,1,0.36989,0,Incongruent
0,12,2,1,2,1,0,1,0.5624,0,Congruent
1,12,2,1,3,1,1,1,0.61142,0,Neutral
2,12,2,1,4,2,2,0,0.40321,0,Incongruent
3,12,2,1,5,2,1,1,0.48875,0,Neutral
4,12,2,1,6,1,1,1,0.47718,0,Neutral
5,12,2,1,7,1,0,1,0.5099600000000001,0,Congruent
6,12,2,1,8,1,1,1,0.4034,0,Neutral
7,12,2,1,9,2,2,1,0.51875,0,Incongruent
8,12,2,1,10,2,1,1,0.5100100000000001,0,Neutral
9,12,2,1,11,1,2,1,0.6296,0,Incongruent
10,12,2,1,12,2,0,1,0.62932,0,Congruent
11,12,2,1,13,2,0,1,0.42265,0,Congruent
12,12,2,1,14,1,2,1,0.54313,0,Incongruent
13,12,2,1,15,2,0,1,0.44317,0,Congruent
14,12,2,1,16,2,0,1,0.4959,0,Congruent
15,12,2,1,17,1,2,1,0.58219,0,Incongruent
16,12,2,1,18,2,2,1,0.51117,0,Incongruent
17,12,2,1,19,1,0,1,0.55708,0,Congruent
18,12,2,1,20,1,2,1,0.54942,0,Incongruent
19,12,2,1,21,1,1,1,0.5284399999999999,0,Neutral
20,12,2,1,22,1,2,1,0.6138399999999999,0,Incongruent
21,12,2,1,23,1,2,0,0.42106000000000005,0,Incongruent
22,12,2,1,24,2,0,1,0.37748000000000004,0,Congruent
23,12,2,1,25,1,1,1,0.48577,0,Neutral
24,12,2,1,26,1,1,1,0.42862,0,Neutral
25,12,2,1,27,1,0,1,0.59204,0,Congruent
26,12,2,1,28,1,1,1,0.44167,0,Neutral
27,12,2,1,29,2,0,1,0.46176000000000006,0,Congruent
28,12,2,1,30,2,0,1,0.45118,0,Congruent
29,12,2,1,31,1,2,1,0.54002,0,Incongruent
30,12,2,1,32,2,0,1,0.55237,0,Congruent
31,12,2,1,33,1,0,1,0.80889,0,Congruent
33,12,2,1,35,2,1,1,0.40788,0,Neutral
34,12,2,1,36,1,0,1,0.5788800000000001,0,Congruent
35,12,2,1,37,2,2,1,0.47541000000000005,0,Incongruent
36,12,2,1,38,2,1,1,0.45019,0,Neutral
37,12,2,1,39,1,1,1,0.48702,0,Neutral
38,12,2,1,40,2,2,1,0.59783,0,Incongruent
39,12,2,1,41,1,1,1,0.52437,0,Neutral
40,12,2,1,42,2,1,1,0.45948,0,Neutral
41,12,2,1,43,2,2,1,0.68274,0,Incongruent
42,12,2,1,44,1,0,1,0.74903,0,Congruent
43,12,2,1,45,2,1,1,0.53655,0,Neutral
44,12,2,1,46,2,2,1,0.61757,0,Incongruent
46,12,2,1,48,1,0,1,0.83793,0,Congruent
47,12,2,1,49,1,1,1,0.95634,0,Neutral
48,12,2,1,50,2,1,1,0.42075,0,Neutral
49,12,2,1,51,2,2,1,0.74641,0,Incongruent
50,12,2,1,52,2,0,1,0.61541,0,Congruent
51,12,2,1,53,2,0,1,0.74651,0,Congruent
52,12,2,1,54,2,2,1,0.6040800000000001,0,Incongruent
53,12,2,1,55,2,0,1,0.4123,0,Congruent
54,12,2,1,56,1,0,1,0.6411399999999999,0,Congruent
55,12,2,1,57,1,1,1,0.6614899999999999,0,Neutral
56,12,2,1,58,2,0,1,0.53493,0,Congruent
57,12,2,1,59,1,1,1,0.49516000000000004,0,Neutral
58,12,2,1,60,1,2,1,0.6107,0,Incongruent
59,12,2,1,61,2,1,1,0.78074,0,Neutral
60,12,2,1,62,1,0,1,0.4498,0,Congruent
62,12,2,1,64,2,1,1,0.50739,0,Neutral
63,12,2,1,65,1,2,1,0.8001,0,Incongruent
64,12,2,1,66,1,0,1,0.5249199999999999,0,Congruent
65,12,2,1,67,2,1,1,0.38113,0,Neutral
66,12,2,1,68,1,2,0,0.72752,0,Incongruent
67,12,2,1,69,2,2,1,0.47568999999999995,0,Incongruent
69,12,2,1,71,2,1,1,0.43921000000000004,0,Neutral
70,12,2,1,72,1,0,1,0.78792,0,Congruent
71,12,2,1,73,1,0,1,0.44206999999999996,0,Congruent
72,12,2,1,74,2,0,1,0.41428000000000004,0,Congruent
73,12,2,1,75,2,1,1,0.45108000000000004,0,Neutral
74,12,2,1,76,1,0,1,0.60792,0,Congruent
75,12,2,1,77,2,0,1,0.43248000000000003,0,Congruent
76,12,2,1,78,2,1,1,0.77628,0,Neutral
77,12,2,1,79,2,2,1,0.81287,0,Incongruent
78,12,2,1,80,2,1,1,0.80804,0,Neutral
79,12,2,1,81,1,1,1,0.50465,0,Neutral
80,12,2,1,82,1,1,1,0.44409,0,Neutral
81,12,2,1,83,2,0,1,0.9297799999999999,0,Congruent
82,12,2,1,84,2,2,1,0.70075,0,Incongruent
83,12,2,1,85,1,0,1,0.92591,0,Congruent
84,12,2,1,86,2,0,1,0.6625,0,Congruent
85,12,2,1,87,2,2,1,0.64855,0,Incongruent
86,12,2,1,88,1,2,1,0.55487,0,Incongruent
87,12,2,1,89,1,0,1,0.37259000000000003,0,Congruent
88,12,2,1,90,1,1,1,0.39027,0,Neutral
89,12,2,1,91,2,1,1,0.30735,0,Neutral
90,12,2,1,92,1,1,0,0.3399,0,Neutral
91,12,2,1,93,2,0,1,0.34321999999999997,0,Congruent
93,12,2,1,95,2,1,1,0.36796999999999996,0,Neutral
94,12,2,1,96,1,2,1,0.5159,0,Incongruent
95,12,2,1,97,1,2,1,0.8034100000000001,0,Incongruent
96,12,2,1,98,1,2,0,0.81667,0,Incongruent
97,12,2,1,99,2,2,1,0.5907600000000001,0,Incongruent
99,12,2,1,101,2,1,1,0.50046,0,Neutral
100,12,2,1,102,2,2,1,0.52162,0,Incongruent
101,12,2,1,103,2,2,1,0.40038,0,Incongruent
102,12,2,1,104,1,2,1,0.51623,0,Incongruent
103,12,2,1,105,1,0,1,0.5405800000000001,0,Congruent
104,12,2,1,106,2,2,1,0.6271100000000001,0,Incongruent
105,12,2,1,107,2,1,1,0.37232,0,Neutral
106,12,2,1,108,1,1,1,0.55171,0,Neutral
107,12,2,1,109,1,1,1,0.9348299999999999,0,Neutral
108,12,2,1,110,1,2,1,0.6887300000000001,0,Incongruent
109,12,2,1,111,1,1,1,0.5323399999999999,0,Neutral
110,12,2,1,112,1,2,1,0.5705399999999999,0,Incongruent
111,12,2,1,113,1,2,1,0.52477,0,Incongruent
112,12,2,1,114,1,1,1,0.41608,0,Neutral
113,12,2,1,115,2,2,1,0.43831000000000003,0,Incongruent
114,12,2,1,116,1,2,1,0.55423,0,Incongruent
115,12,2,1,117,2,0,1,0.49121000000000004,0,Congruent
116,12,2,1,118,1,2,1,0.57581,0,Incongruent
118,12,2,1,120,1,0,1,0.48636,0,Congruent
119,12,2,1,121,2,1,1,0.57463,0,Neutral
120,12,2,1,122,1,1,1,0.42165,0,Neutral
121,12,2,1,123,2,0,1,0.81862,0,Congruent
122,12,2,1,124,1,2,1,0.69752,0,Incongruent
123,12,2,1,125,2,0,1,0.49866000000000005,0,Congruent
124,12,2,1,126,2,2,1,0.50562,0,Incongruent
125,12,2,1,127,1,0,1,0.62515,0,Congruent
126,12,2,1,128,1,1,0,0.32949,0,Neutral
127,12,2,1,129,2,0,1,0.6452,0,Congruent
128,12,2,1,130,1,0,1,0.55747,0,Congruent
130,12,2,1,132,2,1,1,0.44815,0,Neutral
131,12,2,1,133,2,1,1,0.5082399999999999,0,Neutral
132,12,2,1,134,1,1,0,0.36296,0,Neutral
133,12,2,1,135,2,0,1,0.28572,0,Congruent
134,12,2,1,136,2,2,1,0.69519,0,Incongruent
135,12,2,1,137,2,2,1,0.7390899999999999,0,Incongruent
136,12,2,1,138,2,0,1,0.64567,0,Congruent
137,12,2,1,139,1,2,1,0.54518,0,Incongruent
138,12,2,1,140,1,1,1,0.6563,0,Neutral
139,12,2,1,141,2,2,1,0.4767,0,Incongruent
140,12,2,1,142,2,2,1,0.89545,0,Incongruent
141,12,2,1,143,2,1,1,0.42291999999999996,0,Neutral
142,12,2,1,144,2,0,0,0.37269,0,Congruent
143,12,2,2,1,1,2,1,0.88885,0,Incongruent
144,12,2,2,2,1,1,1,0.44752,0,Neutral
145,12,2,2,3,2,2,1,0.51662,0,Incongruent
147,12,2,2,5,2,1,1,0.48786999999999997,0,Neutral
148,12,2,2,6,1,2,1,0.46924,0,Incongruent
149,12,2,2,7,2,1,1,0.30728,0,Neutral
150,12,2,2,8,2,0,1,0.43885,0,Congruent
151,12,2,2,9,1,0,0,0.31672,0,Congruent
152,12,2,2,10,2,1,1,0.46012,0,Neutral
154,12,2,2,12,1,1,1,0.86325,0,Neutral
156,12,2,2,14,2,0,1,0.60277,0,Congruent
157,12,2,2,15,2,1,1,0.41263999999999995,0,Neutral
158,12,2,2,16,2,1,1,0.39926,0,Neutral
159,12,2,2,17,2,2,1,0.69338,0,Incongruent
160,12,2,2,18,1,2,1,0.67147,0,Incongruent
161,12,2,2,19,2,2,1,0.44928999999999997,0,Incongruent
162,12,2,2,20,2,1,1,0.38497,0,Neutral
163,12,2,2,21,2,1,1,0.43525,0,Neutral
164,12,2,2,22,1,0,1,0.44847,0,Congruent
165,12,2,2,23,2,2,1,0.47676,0,Incongruent
166,12,2,2,24,1,0,1,0.52271,0,Congruent
167,12,2,2,25,1,0,0,0.34079,0,Congruent
168,12,2,2,26,2,0,1,0.405,0,Congruent
169,12,2,2,27,2,1,1,0.5133,0,Neutral
170,12,2,2,28,2,0,1,0.43935,0,Congruent
171,12,2,2,29,1,1,1,0.6039,0,Neutral
172,12,2,2,30,2,2,1,0.50845,0,Incongruent
173,12,2,2,31,1,1,1,0.5471699999999999,0,Neutral
174,12,2,2,32,1,2,0,0.37064,0,Incongruent
175,12,2,2,33,1,0,0,0.39023,0,Congruent
176,12,2,2,34,2,0,1,0.34751,0,Congruent
177,12,2,2,35,2,0,1,0.37309000000000003,0,Congruent
178,12,2,2,36,1,0,1,0.5441,0,Congruent
179,12,2,2,37,2,1,1,0.52693,0,Neutral
182,12,2,2,40,1,0,1,0.42423999999999995,0,Congruent
183,12,2,2,41,1,1,1,0.42567,0,Neutral
184,12,2,2,42,2,0,1,0.44941000000000003,0,Congruent
185,12,2,2,43,2,0,1,0.41391000000000006,0,Congruent
186,12,2,2,44,1,1,1,0.44218999999999997,0,Neutral
188,12,2,2,46,2,2,1,0.6212300000000001,0,Incongruent
189,12,2,2,47,1,2,1,0.5009,0,Incongruent
190,12,2,2,48,1,2,1,0.74889,0,Incongruent
191,12,2,2,49,1,0,1,0.56287,0,Congruent
192,12,2,2,50,2,0,1,0.6186,0,Congruent
193,12,2,2,51,1,2,1,0.52276,0,Incongruent
194,12,2,2,52,1,1,1,0.43973,0,Neutral
195,12,2,2,53,2,2,1,0.84526,0,Incongruent
196,12,2,2,54,2,2,1,0.45242,0,Incongruent
197,12,2,2,55,1,0,1,0.65749,0,Congruent
198,12,2,2,56,1,1,1,0.43487,0,Neutral
199,12,2,2,57,2,1,0,0.40074,0,Neutral
200,12,2,2,58,1,1,1,0.48338000000000003,0,Neutral
202,12,2,2,60,2,2,1,0.71225,0,Incongruent
203,12,2,2,61,2,0,1,0.42696999999999996,0,Congruent
204,12,2,2,62,1,2,1,0.44071000000000005,0,Incongruent
205,12,2,2,63,1,1,1,0.43065,0,Neutral
206,12,2,2,64,1,0,1,0.64959,0,Congruent
207,12,2,2,65,2,0,1,0.44463,0,Congruent
209,12,2,2,67,2,0,1,0.47226999999999997,0,Congruent
210,12,2,2,68,2,0,1,0.61482,0,Congruent
211,12,2,2,69,2,2,1,0.57534,0,Incongruent
212,12,2,2,70,2,0,1,0.58263,0,Congruent
213,12,2,2,71,2,2,1,0.63969,0,Incongruent
214,12,2,2,72,2,2,1,0.30564,0,Incongruent
215,12,2,2,73,1,2,1,0.76345,0,Incongruent
216,12,2,2,74,1,0,1,0.52709,0,Congruent
217,12,2,2,75,1,0,1,0.6711199999999999,0,Congruent
218,12,2,2,76,1,1,1,0.45043,0,Neutral
219,12,2,2,77,1,1,1,0.46402,0,Neutral
220,12,2,2,78,2,2,1,0.46007,0,Incongruent
221,12,2,2,79,1,1,1,0.65751,0,Neutral
222,12,2,2,80,2,2,1,0.3223,0,Incongruent
223,12,2,2,81,1,2,1,0.5737,0,Incongruent
224,12,2,2,82,1,2,0,0.49461000000000005,0,Incongruent
225,12,2,2,83,1,0,1,0.56488,0,Congruent
226,12,2,2,84,2,2,1,0.5486300000000001,0,Incongruent
227,12,2,2,85,1,0,1,0.50644,0,Congruent
228,12,2,2,86,1,2,1,0.6118600000000001,0,Incongruent
229,12,2,2,87,2,0,1,0.5392100000000001,0,Congruent
230,12,2,2,88,1,1,1,0.51448,0,Neutral
231,12,2,2,89,1,0,1,0.71397,0,Congruent
232,12,2,2,90,1,2,1,0.76463,0,Incongruent
233,12,2,2,91,1,1,0,0.8428700000000001,0,Neutral
234,12,2,2,92,1,2,0,0.33578,0,Incongruent
235,12,2,2,93,2,0,1,0.7227,0,Congruent
236,12,2,2,94,2,2,1,0.76678,0,Incongruent
237,12,2,2,95,1,0,1,0.50597,0,Congruent
238,12,2,2,96,2,2,1,0.70816,0,Incongruent
239,12,2,2,97,1,2,1,0.50113,0,Incongruent
240,12,2,2,98,2,1,1,0.42816000000000004,0,Neutral
241,12,2,2,99,2,1,1,0.44861,0,Neutral
242,12,2,2,100,2,0,1,0.66027,0,Congruent
243,12,2,2,101,2,1,1,0.51136,0,Neutral
244,12,2,2,102,2,1,1,0.63823,0,Neutral
245,12,2,2,103,2,0,1,0.5674100000000001,0,Congruent
246,12,2,2,104,2,1,1,0.51999,0,Neutral
247,12,2,2,105,1,0,0,0.32766999999999996,0,Congruent
248,12,2,2,106,1,2,1,0.63969,0,Incongruent
249,12,2,2,107,2,1,1,0.59735,0,Neutral
250,12,2,2,108,2,2,1,0.70805,0,Incongruent
251,12,2,2,109,2,2,1,0.49375,0,Incongruent
257,12,2,2,115,1,1,1,0.8200200000000001,0,Neutral
258,12,2,2,116,1,0,1,0.50755,0,Congruent
259,12,2,2,117,1,0,1,0.5778800000000001,0,Congruent
260,12,2,2,118,1,1,1,0.5300600000000001,0,Neutral
261,12,2,2,119,1,1,1,0.8813799999999999,0,Neutral
263,12,2,2,121,2,1,1,0.44711999999999996,0,Neutral
264,12,2,2,122,2,0,1,0.63783,0,Congruent
265,12,2,2,123,2,0,1,0.59875,0,Congruent
266,12,2,2,124,1,1,1,0.51973,0,Neutral
267,12,2,2,125,2,1,1,0.64595,0,Neutral
268,12,2,2,126,2,0,1,0.75122,0,Congruent
269,12,2,2,127,1,0,1,0.5884,0,Congruent
270,12,2,2,128,2,1,1,0.50115,0,Neutral
272,12,2,2,130,1,2,1,0.9267,0,Incongruent
273,12,2,2,131,2,0,1,0.4646,0,Congruent
276,12,2,2,134,1,2,1,0.4301,0,Incongruent
277,12,2,2,135,2,1,1,0.48296999999999995,0,Neutral
278,12,2,2,136,2,2,0,0.59123,0,Incongruent
279,12,2,2,137,1,0,1,0.57768,0,Congruent
280,12,2,2,138,2,1,1,0.44373999999999997,0,Neutral
281,12,2,2,139,2,1,1,0.73416,0,Neutral
282,12,2,2,140,1,1,1,0.6100300000000001,0,Neutral
283,12,2,2,141,2,2,1,0.63462,0,Incongruent
284,12,2,2,142,1,1,1,0.62173,0,Neutral
285,12,2,2,143,1,2,1,0.60117,0,Incongruent
287,12,2,3,1,1,0,1,0.8996799999999999,0,Congruent
288,12,2,3,2,2,2,1,0.63875,0,Incongruent
289,12,2,3,3,1,1,1,0.49386,0,Neutral
290,12,2,3,4,2,0,1,0.41288,0,Congruent
291,12,2,3,5,1,2,0,0.36903,0,Incongruent
292,12,2,3,6,1,2,1,0.4225,0,Incongruent
293,12,2,3,7,2,1,1,0.7923600000000001,0,Neutral
294,12,2,3,8,2,2,1,0.81287,0,Incongruent
295,12,2,3,9,2,1,1,0.6844399999999999,0,Neutral
296,12,2,3,10,2,2,1,0.53722,0,Incongruent
297,12,2,3,11,2,0,1,0.45402,0,Congruent
298,12,2,3,12,1,2,1,0.47544,0,Incongruent
299,12,2,3,13,1,0,1,0.45733999999999997,0,Congruent
300,12,2,3,14,1,0,1,0.55295,0,Congruent
301,12,2,3,15,1,0,1,0.38240999999999997,0,Congruent
303,12,2,3,17,1,2,1,0.75026,0,Incongruent
304,12,2,3,18,1,0,1,0.52625,0,Congruent
305,12,2,3,19,2,1,1,0.47515,0,Neutral
306,12,2,3,20,1,2,1,0.4976,0,Incongruent
307,12,2,3,21,2,1,1,0.52923,0,Neutral
308,12,2,3,22,2,2,1,0.5422600000000001,0,Incongruent
309,12,2,3,23,2,0,1,0.6623100000000001,0,Congruent
310,12,2,3,24,1,0,1,0.49504,0,Congruent
311,12,2,3,25,2,2,1,0.6711699999999999,0,Incongruent
312,12,2,3,26,2,1,1,0.71318,0,Neutral
313,12,2,3,27,1,2,1,0.51031,0,Incongruent
314,12,2,3,28,2,1,1,0.49906000000000006,0,Neutral
315,12,2,3,29,2,2,1,0.6023,0,Incongruent
316,12,2,3,30,2,2,1,0.6583,0,Incongruent
317,12,2,3,31,1,2,1,0.63069,0,Incongruent
318,12,2,3,32,1,2,1,0.82465,0,Incongruent
319,12,2,3,33,1,2,1,0.9395100000000001,0,Incongruent
320,12,2,3,34,1,1,1,0.57602,0,Neutral
321,12,2,3,35,2,1,1,0.49338999999999994,0,Neutral
322,12,2,3,36,1,2,1,0.58739,0,Incongruent
323,12,2,3,37,2,0,1,0.78122,0,Congruent
324,12,2,3,38,2,1,1,0.5782,0,Neutral
325,12,2,3,39,1,0,1,0.81016,0,Congruent
326,12,2,3,40,2,2,1,0.44636000000000003,0,Incongruent
327,12,2,3,41,1,0,1,0.6696300000000001,0,Congruent
328,12,2,3,42,1,2,0,0.8399399999999999,0,Incongruent
329,12,2,3,43,2,1,1,0.38172,0,Neutral
330,12,2,3,44,2,0,1,0.49851,0,Congruent
331,12,2,3,45,1,1,1,0.53487,0,Neutral
332,12,2,3,46,1,1,0,0.43973,0,Neutral
333,12,2,3,47,2,0,1,0.51656,0,Congruent
334,12,2,3,48,2,2,1,0.76947,0,Incongruent
335,12,2,3,49,1,0,1,0.70407,0,Congruent
337,12,2,3,51,1,1,1,0.87625,0,Neutral
338,12,2,3,52,2,1,1,0.47558999999999996,0,Neutral
339,12,2,3,53,2,1,1,0.47355,0,Neutral
340,12,2,3,54,2,0,1,0.55897,0,Congruent
341,12,2,3,55,2,2,1,0.59996,0,Incongruent
342,12,2,3,56,1,0,1,0.49688999999999994,0,Congruent
343,12,2,3,57,2,1,1,0.47041000000000005,0,Neutral
344,12,2,3,58,2,2,1,0.61935,0,Incongruent
345,12,2,3,59,1,0,1,0.55877,0,Congruent
346,12,2,3,60,1,1,1,0.69338,0,Neutral
347,12,2,3,61,1,2,1,0.78462,0,Incongruent
348,12,2,3,62,1,0,1,0.63767,0,Congruent
349,12,2,3,63,2,2,1,0.47947,0,Incongruent
350,12,2,3,64,1,0,1,0.91027,0,Congruent
351,12,2,3,65,1,0,1,0.48631,0,Congruent
352,12,2,3,66,2,0,1,0.49156000000000005,0,Congruent
353,12,2,3,67,1,0,1,0.8896,0,Congruent
354,12,2,3,68,1,2,0,0.34469,0,Incongruent
355,12,2,3,69,2,2,1,0.9473,0,Incongruent
357,12,2,3,71,1,0,1,0.54046,0,Congruent
358,12,2,3,72,2,2,1,0.41743,0,Incongruent
359,12,2,3,73,2,0,1,0.5657800000000001,0,Congruent
360,12,2,3,74,1,1,1,0.51665,0,Neutral
361,12,2,3,75,2,1,1,0.44608000000000003,0,Neutral
362,12,2,3,76,1,1,1,0.76117,0,Neutral
363,12,2,3,77,2,2,1,0.49416000000000004,0,Incongruent
364,12,2,3,78,2,0,1,0.46331000000000006,0,Congruent
365,12,2,3,79,2,0,1,0.37721,0,Congruent
366,12,2,3,80,1,1,1,0.47723999999999994,0,Neutral
367,12,2,3,81,2,1,1,0.46024,0,Neutral
368,12,2,3,82,2,2,1,0.5462899999999999,0,Incongruent
369,12,2,3,83,2,2,1,0.3846,0,Incongruent
370,12,2,3,84,2,1,1,0.46776,0,Neutral
371,12,2,3,85,1,0,1,0.51381,0,Congruent
372,12,2,3,86,1,2,1,0.87165,0,Incongruent
373,12,2,3,87,1,1,1,0.57505,0,Neutral
374,12,2,3,88,1,2,0,0.36859000000000003,0,Incongruent
375,12,2,3,89,2,2,1,0.40234000000000003,0,Incongruent
376,12,2,3,90,2,1,1,0.44656,0,Neutral
377,12,2,3,91,2,1,1,0.54832,0,Neutral
378,12,2,3,92,2,0,1,0.57309,0,Congruent
379,12,2,3,93,1,2,1,0.7903600000000001,0,Incongruent
380,12,2,3,94,2,0,1,0.49881000000000003,0,Congruent
381,12,2,3,95,2,1,1,0.54556,0,Neutral
382,12,2,3,96,1,1,0,0.41491999999999996,0,Neutral
383,12,2,3,97,2,1,1,0.3808,0,Neutral
384,12,2,3,98,1,1,1,0.46471,0,Neutral
385,12,2,3,99,2,0,1,0.43743000000000004,0,Congruent
386,12,2,3,100,2,1,1,0.48326,0,Neutral
388,12,2,3,102,2,2,1,0.41401000000000004,0,Incongruent
389,12,2,3,103,2,1,1,0.47363999999999995,0,Neutral
390,12,2,3,104,1,1,1,0.49616000000000005,0,Neutral
391,12,2,3,105,2,0,1,0.44659,0,Congruent
392,12,2,3,106,2,0,1,0.70229,0,Congruent
393,12,2,3,107,1,1,0,0.83354,0,Neutral
394,12,2,3,108,1,1,1,0.48468999999999995,0,Neutral
395,12,2,3,109,1,2,1,0.60625,0,Incongruent
396,12,2,3,110,1,1,1,0.5009399999999999,0,Neutral
397,12,2,3,111,1,2,1,0.49792,0,Incongruent
398,12,2,3,112,2,0,1,0.47317,0,Congruent
399,12,2,3,113,1,1,1,0.58958,0,Neutral
400,12,2,3,114,1,1,1,0.86274,0,Neutral
401,12,2,3,115,2,0,1,0.50258,0,Congruent
402,12,2,3,116,2,2,1,0.94181,0,Incongruent
403,12,2,3,117,1,2,1,0.6786399999999999,0,Incongruent
404,12,2,3,118,2,2,1,0.49586,0,Incongruent
405,12,2,3,119,2,2,1,0.37492,0,Incongruent
406,12,2,3,120,2,0,1,0.66755,0,Congruent
407,12,2,3,121,1,1,1,0.6702,0,Neutral
408,12,2,3,122,1,0,1,0.7036100000000001,0,Congruent
409,12,2,3,123,1,0,1,0.53168,0,Congruent
410,12,2,3,124,2,0,1,0.52454,0,Congruent
411,12,2,3,125,1,2,1,0.7299399999999999,0,Incongruent
412,12,2,3,126,1,1,1,0.47626999999999997,0,Neutral
413,12,2,3,127,2,0,1,0.49287,0,Congruent
414,12,2,3,128,1,1,1,0.5302399999999999,0,Neutral
416,12,2,3,130,2,2,1,0.51071,0,Incongruent
417,12,2,3,131,1,1,1,0.5111100000000001,0,Neutral
418,12,2,3,132,1,0,1,0.46901000000000004,0,Congruent
419,12,2,3,133,2,1,1,0.68181,0,Neutral
420,12,2,3,134,2,0,1,0.48528999999999994,0,Congruent
421,12,2,3,135,1,0,1,0.65881,0,Congruent
422,12,2,3,136,1,2,0,0.43556999999999996,0,Incongruent
423,12,2,3,137,1,1,1,0.42646999999999996,0,Neutral
425,12,2,3,139,2,1,1,0.45188,0,Neutral
426,12,2,3,140,2,1,1,0.48128999999999994,0,Neutral
427,12,2,3,141,1,2,1,0.64764,0,Incongruent
429,12,2,3,143,1,1,1,0.61984,0,Neutral
430,12,2,3,144,1,0,1,0.5503600000000001,0,Congruent
431,12,2,4,1,2,0,1,0.45378,0,Congruent
432,12,2,4,2,1,1,1,0.6602100000000001,0,Neutral
433,12,2,4,3,2,2,1,0.65437,0,Incongruent
434,12,2,4,4,2,2,1,0.59123,0,Incongruent
435,12,2,4,5,2,2,1,0.5199,0,Incongruent
436,12,2,4,6,2,1,1,0.40618000000000004,0,Neutral
437,12,2,4,7,1,2,1,0.49126000000000003,0,Incongruent
438,12,2,4,8,1,2,0,0.45731000000000005,0,Incongruent
439,12,2,4,9,2,0,1,0.35858,0,Congruent
440,12,2,4,10,1,2,0,0.3382,0,Incongruent
441,12,2,4,11,2,2,1,0.29941,0,Incongruent
442,12,2,4,12,2,0,1,0.4055,0,Congruent
443,12,2,4,13,2,0,1,0.36435,0,Congruent
444,12,2,4,14,1,2,0,0.34768000000000004,0,Incongruent
445,12,2,4,15,1,2,1,0.5838399999999999,0,Incongruent
446,12,2,4,16,2,0,1,0.63195,0,Congruent
447,12,2,4,17,2,2,0,0.45677,0,Incongruent
448,12,2,4,18,1,2,1,0.67075,0,Incongruent
449,12,2,4,19,2,0,1,0.46535,0,Congruent
450,12,2,4,20,1,1,0,0.39092,0,Neutral
451,12,2,4,21,1,1,0,0.44306,0,Neutral
452,12,2,4,22,1,1,0,0.32811,0,Neutral
453,12,2,4,23,1,1,1,0.49854,0,Neutral
454,12,2,4,24,2,0,1,0.50405,0,Congruent
455,12,2,4,25,1,1,1,0.6783,0,Neutral
456,12,2,4,26,1,0,1,0.6017100000000001,0,Congruent
457,12,2,4,27,1,0,1,0.64247,0,Congruent
458,12,2,4,28,2,2,1,0.5885699999999999,0,Incongruent
459,12,2,4,29,2,1,1,0.50967,0,Neutral
460,12,2,4,30,1,1,1,0.66704,0,Neutral
461,12,2,4,31,1,1,1,0.49333,0,Neutral
462,12,2,4,32,2,1,1,0.89345,0,Neutral
463,12,2,4,33,1,2,1,0.70763,0,Incongruent
464,12,2,4,34,2,1,1,0.71963,0,Neutral
465,12,2,4,35,1,1,1,0.51603,0,Neutral
467,12,2,4,37,1,0,1,0.5686,0,Congruent
469,12,2,4,39,2,2,1,0.5485800000000001,0,Incongruent
470,12,2,4,40,1,1,1,0.55775,0,Neutral
471,12,2,4,41,2,1,1,0.33928,0,Neutral
472,12,2,4,42,1,0,1,0.47735,0,Congruent
473,12,2,4,43,2,0,1,0.36493000000000003,0,Congruent
474,12,2,4,44,1,0,1,0.61634,0,Congruent
475,12,2,4,45,1,0,1,0.6332399999999999,0,Congruent
476,12,2,4,46,2,1,1,0.79377,0,Neutral
477,12,2,4,47,1,1,1,0.56753,0,Neutral
478,12,2,4,48,2,1,1,0.8155100000000001,0,Neutral
479,12,2,4,49,2,0,1,0.61368,0,Congruent
480,12,2,4,50,1,0,1,0.615,0,Congruent
481,12,2,4,51,1,0,1,0.64002,0,Congruent
482,12,2,4,52,2,2,1,0.52286,0,Incongruent
483,12,2,4,53,2,0,1,0.49017,0,Congruent
484,12,2,4,54,1,1,1,0.51034,0,Neutral
485,12,2,4,55,1,2,1,0.68588,0,Incongruent
486,12,2,4,56,2,0,1,0.49682,0,Congruent
487,12,2,4,57,2,1,1,0.60002,0,Neutral
489,12,2,4,59,1,0,1,0.41966000000000003,0,Congruent
490,12,2,4,60,2,1,1,0.51727,0,Neutral
492,12,2,4,62,1,0,1,0.48655,0,Congruent
493,12,2,4,63,2,0,1,0.46911,0,Congruent
494,12,2,4,64,2,2,1,0.77158,0,Incongruent
497,12,2,4,67,2,2,1,0.55204,0,Incongruent
499,12,2,4,69,1,0,1,0.62978,0,Congruent
500,12,2,4,70,2,2,1,0.7368899999999999,0,Incongruent
501,12,2,4,71,2,2,1,0.46123000000000003,0,Incongruent
502,12,2,4,72,1,1,1,0.58587,0,Neutral
503,12,2,4,73,1,1,1,0.7394,0,Neutral
504,12,2,4,74,1,1,1,0.43986000000000003,0,Neutral
505,12,2,4,75,2,2,1,0.53171,0,Incongruent
506,12,2,4,76,2,1,1,0.94978,0,Neutral
507,12,2,4,77,1,1,1,0.51612,0,Neutral
508,12,2,4,78,1,2,1,0.9325700000000001,0,Incongruent
509,12,2,4,79,1,0,1,0.46756000000000003,0,Congruent
510,12,2,4,80,1,0,1,0.48139,0,Congruent
511,12,2,4,81,1,0,1,0.67912,0,Congruent
512,12,2,4,82,2,0,1,0.78878,0,Congruent
513,12,2,4,83,2,2,1,0.46355,0,Incongruent
514,12,2,4,84,2,1,1,0.54952,0,Neutral
515,12,2,4,85,2,1,1,0.45142,0,Neutral
516,12,2,4,86,2,0,1,0.49666000000000005,0,Congruent
517,12,2,4,87,2,2,1,0.53599,0,Incongruent
518,12,2,4,88,1,1,0,0.42268,0,Neutral
520,12,2,4,90,2,2,1,0.49212,0,Incongruent
521,12,2,4,91,2,1,1,0.37305,0,Neutral
522,12,2,4,92,1,2,1,0.64881,0,Incongruent
523,12,2,4,93,2,0,1,0.86419,0,Congruent
524,12,2,4,94,1,1,1,0.43127,0,Neutral
525,12,2,4,95,2,2,0,0.45338,0,Incongruent
526,12,2,4,96,2,2,1,0.41263,0,Incongruent
527,12,2,4,97,2,0,1,0.55079,0,Congruent
528,12,2,4,98,1,2,1,0.53362,0,Incongruent
529,12,2,4,99,2,2,1,0.5666,0,Incongruent
530,12,2,4,100,2,1,0,0.7571899999999999,0,Neutral
531,12,2,4,101,1,0,1,0.5715899999999999,0,Congruent
532,12,2,4,102,1,2,0,0.57748,0,Incongruent
533,12,2,4,103,1,1,1,0.5375800000000001,0,Neutral
535,12,2,4,105,2,2,1,0.5856100000000001,0,Incongruent
536,12,2,4,106,1,0,1,0.78494,0,Congruent
537,12,2,4,107,2,0,1,0.8623799999999999,0,Congruent
538,12,2,4,108,1,2,0,0.64489,0,Incongruent
539,12,2,4,109,1,0,1,0.53722,0,Congruent
540,12,2,4,110,1,2,1,0.70199,0,Incongruent
542,12,2,4,112,2,2,1,0.77252,0,Incongruent
543,12,2,4,113,2,2,1,0.66669,0,Incongruent
544,12,2,4,114,2,1,1,0.48577,0,Neutral
545,12,2,4,115,2,1,1,0.48108,0,Neutral
546,12,2,4,116,2,0,1,0.81781,0,Congruent
547,12,2,4,117,1,2,1,0.6240399999999999,0,Incongruent
548,12,2,4,118,1,2,0,0.43281000000000003,0,Incongruent
549,12,2,4,119,1,0,1,0.82115,0,Congruent
550,12,2,4,120,1,2,1,0.55367,0,Incongruent
551,12,2,4,121,2,1,1,0.45009,0,Neutral
552,12,2,4,122,2,1,1,0.5280600000000001,0,Neutral
553,12,2,4,123,1,0,1,0.48628999999999994,0,Congruent
554,12,2,4,124,2,0,1,0.42836,0,Congruent
555,12,2,4,125,2,1,1,0.61661,0,Neutral
556,12,2,4,126,2,1,1,0.41846000000000005,0,Neutral
557,12,2,4,127,2,1,1,0.42425,0,Neutral
558,12,2,4,128,2,0,1,0.57218,0,Congruent
559,12,2,4,129,2,0,1,0.66768,0,Congruent
560,12,2,4,130,2,2,1,0.64664,0,Incongruent
561,12,2,4,131,1,0,1,0.71267,0,Congruent
562,12,2,4,132,1,2,1,0.58822,0,Incongruent
563,12,2,4,133,1,2,1,0.54971,0,Incongruent
564,12,2,4,134,1,2,1,0.55882,0,Incongruent
567,12,2,4,137,1,2,1,0.7454,0,Incongruent
568,12,2,4,138,1,1,1,0.46236000000000005,0,Neutral
569,12,2,4,139,2,1,1,0.50975,0,Neutral
570,12,2,4,140,1,0,1,0.59455,0,Congruent
571,12,2,4,141,2,2,1,0.71695,0,Incongruent
572,12,2,4,142,1,0,1,0.38174,0,Congruent
573,12,2,4,143,2,0,1,0.4748,0,Congruent
574,12,2,4,144,1,0,1,0.52874,0,Congruent
575,12,2,5,1,2,0,1,0.68895,0,Congruent
576,12,2,5,2,1,0,1,0.53882,0,Congruent
577,12,2,5,3,1,2,1,0.61832,0,Incongruent
578,12,2,5,4,2,2,1,0.51677,0,Incongruent
579,12,2,5,5,2,1,1,0.43481000000000003,0,Neutral
580,12,2,5,6,2,2,1,0.42283000000000004,0,Incongruent
581,12,2,5,7,1,0,1,0.51815,0,Congruent
582,12,2,5,8,1,2,1,0.65881,0,Incongruent
583,12,2,5,9,1,2,1,0.7493,0,Incongruent
584,12,2,5,10,1,1,1,0.47223000000000004,0,Neutral
585,12,2,5,11,1,1,1,0.47991999999999996,0,Neutral
586,12,2,5,12,2,0,1,0.47923999999999994,0,Congruent
587,12,2,5,13,2,1,1,0.68198,0,Neutral
588,12,2,5,14,2,2,1,0.5270600000000001,0,Incongruent
589,12,2,5,15,2,1,1,0.7480899999999999,0,Neutral
590,12,2,5,16,1,0,1,0.5304300000000001,0,Congruent
591,12,2,5,17,1,2,0,0.55096,0,Incongruent
595,12,2,5,21,2,1,1,0.48596000000000006,0,Neutral
596,12,2,5,22,2,2,1,0.68392,0,Incongruent
597,12,2,5,23,1,0,1,0.50271,0,Congruent
598,12,2,5,24,2,1,1,0.45931000000000005,0,Neutral
599,12,2,5,25,2,1,1,0.38511,0,Neutral
600,12,2,5,26,1,2,0,0.4005,0,Incongruent
601,12,2,5,27,1,2,0,0.35323000000000004,0,Incongruent
602,12,2,5,28,1,1,1,0.5242100000000001,0,Neutral
603,12,2,5,29,2,2,1,0.47553999999999996,0,Incongruent
605,12,2,5,31,2,1,1,0.48596000000000006,0,Neutral
606,12,2,5,32,1,1,1,0.51588,0,Neutral
607,12,2,5,33,2,1,1,0.36102,0,Neutral
608,12,2,5,34,1,0,1,0.47543,0,Congruent
609,12,2,5,35,1,1,1,0.42751999999999996,0,Neutral
610,12,2,5,36,1,2,1,0.41468999999999995,0,Incongruent
611,12,2,5,37,2,0,1,0.42746999999999996,0,Congruent
612,12,2,5,38,1,2,1,0.5048,0,Incongruent
613,12,2,5,39,1,0,1,0.47835,0,Congruent
614,12,2,5,40,2,0,1,0.50945,0,Congruent
615,12,2,5,41,1,0,1,0.58017,0,Congruent
616,12,2,5,42,2,0,1,0.50821,0,Congruent
617,12,2,5,43,2,0,1,0.522,0,Congruent
618,12,2,5,44,2,1,1,0.49007,0,Neutral
619,12,2,5,45,1,2,1,0.53635,0,Incongruent
620,12,2,5,46,1,0,1,0.41608,0,Congruent
621,12,2,5,47,2,2,1,0.7182,0,Incongruent
622,12,2,5,48,1,0,1,0.4796,0,Congruent
623,12,2,5,49,2,2,1,0.8532799999999999,0,Incongruent
624,12,2,5,50,2,1,1,0.70117,0,Neutral
625,12,2,5,51,2,1,1,0.5112399999999999,0,Neutral
627,12,2,5,53,2,0,1,0.47383000000000003,0,Congruent
628,12,2,5,54,2,2,1,0.64015,0,Incongruent
629,12,2,5,55,2,1,1,0.6168899999999999,0,Neutral
630,12,2,5,56,1,0,1,0.5320600000000001,0,Congruent
631,12,2,5,57,2,0,1,0.56197,0,Congruent
632,12,2,5,58,1,2,1,0.55413,0,Incongruent
633,12,2,5,59,1,2,1,0.5625899999999999,0,Incongruent
634,12,2,5,60,1,2,1,0.81745,0,Incongruent
635,12,2,5,61,2,0,1,0.52065,0,Congruent
636,12,2,5,62,2,2,1,0.8719899999999999,0,Incongruent
638,12,2,5,64,1,1,1,0.54691,0,Neutral
639,12,2,5,65,2,1,1,0.64289,0,Neutral
641,12,2,5,67,1,1,0,0.69108,0,Neutral
642,12,2,5,68,1,1,1,0.51144,0,Neutral
643,12,2,5,69,2,1,1,0.37944,0,Neutral
644,12,2,5,70,2,0,1,0.50544,0,Congruent
645,12,2,5,71,1,1,1,0.4618,0,Neutral
647,12,2,5,73,2,0,1,0.43788,0,Congruent
648,12,2,5,74,2,0,1,0.45816999999999997,0,Congruent
650,12,2,5,76,2,2,1,0.54938,0,Incongruent
651,12,2,5,77,1,1,0,0.45321999999999996,0,Neutral
652,12,2,5,78,2,2,1,0.64962,0,Incongruent
653,12,2,5,79,2,0,1,0.50013,0,Congruent
654,12,2,5,80,2,2,1,0.73848,0,Incongruent
655,12,2,5,81,2,0,1,0.54914,0,Congruent
656,12,2,5,82,2,0,1,0.63066,0,Congruent
657,12,2,5,83,2,2,1,0.46426999999999996,0,Incongruent
658,12,2,5,84,2,1,1,0.5887399999999999,0,Neutral
659,12,2,5,85,2,1,1,0.5014,0,Neutral
660,12,2,5,86,1,2,0,0.6783899999999999,0,Incongruent
661,12,2,5,87,2,1,1,0.46212,0,Neutral
662,12,2,5,88,2,2,1,0.53286,0,Incongruent
663,12,2,5,89,2,1,1,0.37911999999999996,0,Neutral
664,12,2,5,90,1,0,1,0.9118,0,Congruent
665,12,2,5,91,2,0,1,0.48096000000000005,0,Congruent
666,12,2,5,92,1,2,1,0.58991,0,Incongruent
667,12,2,5,93,1,0,1,0.63671,0,Congruent
668,12,2,5,94,1,2,1,0.7301300000000001,0,Incongruent
669,12,2,5,95,2,0,1,0.5322600000000001,0,Congruent
670,12,2,5,96,1,0,1,0.52269,0,Congruent
671,12,2,5,97,2,1,1,0.5464399999999999,0,Neutral
672,12,2,5,98,1,1,1,0.77679,0,Neutral
673,12,2,5,99,1,1,1,0.44642,0,Neutral
674,12,2,5,100,1,1,1,0.50748,0,Neutral
675,12,2,5,101,2,2,1,0.76988,0,Incongruent
676,12,2,5,102,2,0,1,0.9342299999999999,0,Congruent
677,12,2,5,103,1,0,1,0.40021999999999996,0,Congruent
678,12,2,5,104,1,0,0,0.37273,0,Congruent
679,12,2,5,105,1,0,0,0.53455,0,Congruent
680,12,2,5,106,1,1,1,0.47139,0,Neutral
681,12,2,5,107,1,1,1,0.5160100000000001,0,Neutral
682,12,2,5,108,2,2,1,0.618,0,Incongruent
683,12,2,5,109,1,2,1,0.49158,0,Incongruent
684,12,2,5,110,1,2,1,0.55648,0,Incongruent
685,12,2,5,111,1,1,1,0.66091,0,Neutral
686,12,2,5,112,1,2,1,0.46883,0,Incongruent
687,12,2,5,113,1,2,1,0.60102,0,Incongruent
688,12,2,5,114,1,1,1,0.46791000000000005,0,Neutral
689,12,2,5,115,2,2,1,0.6491100000000001,0,Incongruent
690,12,2,5,116,1,2,1,0.48362,0,Incongruent
691,12,2,5,117,1,2,1,0.63355,0,Incongruent
692,12,2,5,118,2,0,1,0.74817,0,Congruent
693,12,2,5,119,1,2,1,0.71114,0,Incongruent
694,12,2,5,120,1,0,0,0.80942,0,Congruent
695,12,2,5,121,2,2,1,0.5353,0,Incongruent
696,12,2,5,122,2,1,1,0.67193,0,Neutral
697,12,2,5,123,1,2,1,0.7006899999999999,0,Incongruent
698,12,2,5,124,1,0,1,0.70185,0,Congruent
699,12,2,5,125,2,2,1,0.4241,0,Incongruent
700,12,2,5,126,2,2,1,0.7741,0,Incongruent
701,12,2,5,127,2,0,1,0.44361999999999996,0,Congruent
702,12,2,5,128,2,1,1,0.44085,0,Neutral
703,12,2,5,129,2,0,1,0.56296,0,Congruent
704,12,2,5,130,2,2,1,0.45861999999999997,0,Incongruent
705,12,2,5,131,2,0,1,0.43408,0,Congruent
706,12,2,5,132,2,0,1,0.45553999999999994,0,Congruent
707,12,2,5,133,1,0,1,0.92384,0,Congruent
708,12,2,5,134,2,0,1,0.73878,0,Congruent
711,12,2,5,137,2,1,1,0.71291,0,Neutral
712,12,2,5,138,1,1,1,0.5906,0,Neutral
713,12,2,5,139,2,2,1,0.89312,0,Incongruent
714,12,2,5,140,1,0,1,0.6129399999999999,0,Congruent
715,12,2,5,141,1,0,1,0.50779,0,Congruent
716,12,2,5,142,1,1,1,0.44265,0,Neutral
717,12,2,5,143,1,1,1,0.43323,0,Neutral
718,12,2,5,144,2,2,1,0.90061,0,Incongruent
0,13,2,1,2,1,1,1,0.43058,0,Neutral
1,13,2,1,3,1,0,1,0.47267,0,Congruent
2,13,2,1,4,1,1,1,0.31904,0,Neutral
3,13,2,1,5,1,2,1,0.3309,0,Incongruent
4,13,2,1,6,2,1,1,0.46666,0,Neutral
5,13,2,1,7,1,2,1,0.35353,0,Incongruent
6,13,2,1,8,2,1,1,0.51566,0,Neutral
7,13,2,1,9,1,2,1,0.41271,0,Incongruent
8,13,2,1,10,2,2,1,0.3925,0,Incongruent
9,13,2,1,11,2,2,0,0.281,0,Incongruent
10,13,2,1,12,2,0,1,0.56328,0,Congruent
11,13,2,1,13,1,2,1,0.43459,0,Incongruent
12,13,2,1,14,2,2,1,0.45669,0,Incongruent
13,13,2,1,15,2,1,1,0.4379,0,Neutral
14,13,2,1,16,1,1,1,0.43353,0,Neutral
15,13,2,1,17,2,2,1,0.5356,0,Incongruent
16,13,2,1,18,1,0,1,0.33466999999999997,0,Congruent
17,13,2,1,19,2,1,1,0.35518,0,Neutral
18,13,2,1,20,2,2,1,0.47436999999999996,0,Incongruent
19,13,2,1,21,1,0,1,0.36889,0,Congruent
20,13,2,1,22,1,0,1,0.41384,0,Congruent
21,13,2,1,23,1,2,1,0.34407,0,Incongruent
22,13,2,1,24,1,2,1,0.31532,0,Incongruent
23,13,2,1,25,1,2,1,0.31679,0,Incongruent
24,13,2,1,26,2,0,1,0.42357,0,Congruent
25,13,2,1,27,1,1,1,0.4137,0,Neutral
26,13,2,1,28,2,0,1,0.40923000000000004,0,Congruent
27,13,2,1,29,1,0,1,0.38016,0,Congruent
28,13,2,1,30,1,0,0,0.3139,0,Congruent
29,13,2,1,31,2,1,1,0.43583,0,Neutral
30,13,2,1,32,2,1,1,0.4325,0,Neutral
31,13,2,1,33,1,1,1,0.3807,0,Neutral
32,13,2,1,34,1,1,1,0.32768,0,Neutral
33,13,2,1,35,2,1,0,0.32144,0,Neutral
34,13,2,1,36,2,1,1,0.48357,0,Neutral
35,13,2,1,37,2,0,1,0.5459,0,Congruent
36,13,2,1,38,1,0,1,0.38752,0,Congruent
37,13,2,1,39,2,0,1,0.44835,0,Congruent
38,13,2,1,40,1,1,1,0.32338,0,Neutral
39,13,2,1,41,2,1,1,0.34059,0,Neutral
40,13,2,1,42,1,0,1,0.29563,0,Congruent
41,13,2,1,43,1,2,0,0.31267,0,Incongruent
42,13,2,1,44,1,2,1,0.44969,0,Incongruent
43,13,2,1,45,1,2,1,0.39271999999999996,0,Incongruent
44,13,2,1,46,2,1,1,0.45175,0,Neutral
45,13,2,1,47,2,2,1,0.47365,0,Incongruent
46,13,2,1,48,1,2,1,0.36545,0,Incongruent
47,13,2,1,49,2,1,1,0.32904,0,Neutral
48,13,2,1,50,1,0,1,0.37951999999999997,0,Congruent
49,13,2,1,51,1,0,1,0.42393000000000003,0,Congruent
50,13,2,1,52,1,2,1,0.29974,0,Incongruent
51,13,2,1,53,2,0,1,0.50162,0,Congruent
52,13,2,1,54,2,2,1,0.4669,0,Incongruent
53,13,2,1,55,1,2,1,0.41748,0,Incongruent
54,13,2,1,56,1,1,1,0.42912,0,Neutral
55,13,2,1,57,2,0,1,0.46613999999999994,0,Congruent
57,13,2,1,59,1,1,1,0.35901,0,Neutral
58,13,2,1,60,2,2,1,0.50036,0,Incongruent
59,13,2,1,61,1,2,1,0.16932,0,Incongruent
60,13,2,1,62,2,2,1,0.33566,0,Incongruent
61,13,2,1,63,1,1,1,0.2984,0,Neutral
62,13,2,1,64,2,1,1,0.25242,0,Neutral
63,13,2,1,65,1,1,1,0.39476,0,Neutral
64,13,2,1,66,1,0,1,0.35336999999999996,0,Congruent
65,13,2,1,67,1,0,1,0.32295999999999997,0,Congruent
66,13,2,1,68,2,1,1,0.40445,0,Neutral
67,13,2,1,69,1,2,1,0.34576,0,Incongruent
68,13,2,1,70,1,2,0,0.33355,0,Incongruent
69,13,2,1,71,2,0,1,0.62464,0,Congruent
70,13,2,1,72,1,1,1,0.36775,0,Neutral
71,13,2,1,73,1,0,1,0.45098,0,Congruent
72,13,2,1,74,2,0,1,0.44676000000000005,0,Congruent
73,13,2,1,75,2,0,0,0.28725,0,Congruent
74,13,2,1,76,1,2,1,0.41518,0,Incongruent
75,13,2,1,77,1,0,1,0.32185,0,Congruent
76,13,2,1,78,2,2,0,0.30176,0,Incongruent
77,13,2,1,79,2,0,1,0.5916399999999999,0,Congruent
78,13,2,1,80,2,1,1,0.36046,0,Neutral
79,13,2,1,81,1,2,1,0.54624,0,Incongruent
80,13,2,1,82,2,1,1,0.41861000000000004,0,Neutral
81,13,2,1,83,1,2,1,0.45448999999999995,0,Incongruent
82,13,2,1,84,2,2,1,0.32554,0,Incongruent
83,13,2,1,85,2,1,0,0.31111,0,Neutral
84,13,2,1,86,2,2,1,0.49546999999999997,0,Incongruent
85,13,2,1,87,2,1,1,0.37301999999999996,0,Neutral
86,13,2,1,88,2,2,1,0.5379999999999999,0,Incongruent
87,13,2,1,89,2,1,1,0.44004,0,Neutral
88,13,2,1,90,1,1,1,0.4303,0,Neutral
89,13,2,1,91,2,0,1,0.4277,0,Congruent
90,13,2,1,92,2,0,1,0.43958,0,Congruent
91,13,2,1,93,2,0,1,0.48646999999999996,0,Congruent
92,13,2,1,94,1,1,1,0.60172,0,Neutral
93,13,2,1,95,2,0,1,0.43396999999999997,0,Congruent
94,13,2,1,96,1,0,1,0.39186,0,Congruent
95,13,2,1,97,2,0,1,0.34644,0,Congruent
96,13,2,1,98,1,0,1,0.37503000000000003,0,Congruent
97,13,2,1,99,2,2,1,0.45836000000000005,0,Incongruent
98,13,2,1,100,2,0,1,0.41603999999999997,0,Congruent
99,13,2,1,101,1,1,1,0.46808,0,Neutral
100,13,2,1,102,2,0,1,0.47485,0,Congruent
101,13,2,1,103,1,2,1,0.47126,0,Incongruent
102,13,2,1,104,2,2,1,0.33311,0,Incongruent
103,13,2,1,105,1,2,1,0.30403,0,Incongruent
104,13,2,1,106,2,0,1,0.35388000000000003,0,Congruent
105,13,2,1,107,1,0,1,0.31087,0,Congruent
106,13,2,1,108,2,0,1,0.46103,0,Congruent
107,13,2,1,109,1,1,1,0.37188000000000004,0,Neutral
108,13,2,1,110,2,2,1,0.31901,0,Incongruent
109,13,2,1,111,2,0,1,0.48916000000000004,0,Congruent
110,13,2,1,112,2,0,1,0.32829,0,Congruent
111,13,2,1,113,1,1,1,0.39431,0,Neutral
112,13,2,1,114,2,0,1,0.39731,0,Congruent
113,13,2,1,115,1,0,1,0.39389,0,Congruent
114,13,2,1,116,2,1,1,0.28649,0,Neutral
115,13,2,1,117,2,2,1,0.39107,0,Incongruent
116,13,2,1,118,2,1,1,0.37043000000000004,0,Neutral
117,13,2,1,119,1,1,1,0.41291000000000005,0,Neutral
118,13,2,1,120,1,2,1,0.48955,0,Incongruent
119,13,2,1,121,2,2,1,0.41748999999999997,0,Incongruent
120,13,2,1,122,1,0,1,0.58921,0,Congruent
121,13,2,1,123,1,0,1,0.48618,0,Congruent
122,13,2,1,124,2,2,1,0.42113,0,Incongruent
123,13,2,1,125,1,0,1,0.39147,0,Congruent
124,13,2,1,126,1,1,1,0.46031000000000005,0,Neutral
125,13,2,1,127,1,1,1,0.33707,0,Neutral
126,13,2,1,128,2,2,1,0.44337,0,Incongruent
127,13,2,1,129,1,1,1,0.41631,0,Neutral
128,13,2,1,130,1,1,0,0.37388000000000005,0,Neutral
129,13,2,1,131,1,1,1,0.34578000000000003,0,Neutral
130,13,2,1,132,2,1,1,0.44237,0,Neutral
131,13,2,1,133,2,2,1,0.46418000000000004,0,Incongruent
132,13,2,1,134,1,2,1,0.35778000000000004,0,Incongruent
133,13,2,1,135,2,2,1,0.40131,0,Incongruent
134,13,2,1,136,1,0,1,0.3886,0,Congruent
135,13,2,1,137,2,2,1,0.44945,0,Incongruent
136,13,2,1,138,1,0,1,0.38936,0,Congruent
137,13,2,1,139,2,1,1,0.47376,0,Neutral
138,13,2,1,140,2,2,1,0.4955,0,Incongruent
139,13,2,1,141,1,1,1,0.40568000000000004,0,Neutral
140,13,2,1,142,2,1,1,0.5049600000000001,0,Neutral
141,13,2,1,143,1,2,1,0.30325,0,Incongruent
142,13,2,1,144,1,0,0,0.34619,0,Congruent
143,13,2,2,1,1,2,0,0.45963999999999994,0,Incongruent
144,13,2,2,2,1,2,1,0.5097,0,Incongruent
145,13,2,2,3,2,2,1,0.4284,0,Incongruent
146,13,2,2,4,2,1,1,0.48936999999999997,0,Neutral
147,13,2,2,5,2,1,1,0.55962,0,Neutral
148,13,2,2,6,2,2,1,0.29663,0,Incongruent
149,13,2,2,7,2,1,1,0.3225,0,Neutral
150,13,2,2,8,2,2,1,0.46681000000000006,0,Incongruent
151,13,2,2,9,2,1,1,0.32877,0,Neutral
153,13,2,2,11,2,1,1,0.30601999999999996,0,Neutral
154,13,2,2,12,1,2,0,0.33902,0,Incongruent
155,13,2,2,13,1,1,1,0.33305999999999997,0,Neutral
156,13,2,2,14,1,2,1,0.3139,0,Incongruent
157,13,2,2,15,1,0,1,0.37726,0,Congruent
158,13,2,2,16,1,0,1,0.34905,0,Congruent
159,13,2,2,17,1,2,1,0.31209000000000003,0,Incongruent
160,13,2,2,18,2,1,1,0.45876999999999996,0,Neutral
161,13,2,2,19,2,2,1,0.42435,0,Incongruent
162,13,2,2,20,1,2,1,0.45968000000000003,0,Incongruent
163,13,2,2,21,1,0,1,0.34648,0,Congruent
164,13,2,2,22,2,0,1,0.42913999999999997,0,Congruent
165,13,2,2,23,1,2,1,0.43442,0,Incongruent
166,13,2,2,24,1,1,1,0.36791999999999997,0,Neutral
167,13,2,2,25,1,1,1,0.33878,0,Neutral
168,13,2,2,26,2,0,1,0.46828000000000003,0,Congruent
169,13,2,2,27,2,1,1,0.4732,0,Neutral
170,13,2,2,28,1,2,1,0.40700000000000003,0,Incongruent
171,13,2,2,29,2,2,1,0.45119,0,Incongruent
172,13,2,2,30,1,2,1,0.43368,0,Incongruent
173,13,2,2,31,2,1,1,0.4219,0,Neutral
174,13,2,2,32,1,1,1,0.61736,0,Neutral
175,13,2,2,33,1,2,1,0.65257,0,Incongruent
176,13,2,2,34,1,2,1,0.40531999999999996,0,Incongruent
177,13,2,2,35,2,0,1,0.4649,0,Congruent
178,13,2,2,36,1,0,1,0.40734000000000004,0,Congruent
179,13,2,2,37,2,1,1,0.43453,0,Neutral
180,13,2,2,38,1,0,1,0.4408,0,Congruent
181,13,2,2,39,1,0,1,0.42061000000000004,0,Congruent
182,13,2,2,40,2,1,1,0.46553999999999995,0,Neutral
183,13,2,2,41,1,1,1,0.37809,0,Neutral
184,13,2,2,42,2,2,0,0.33154,0,Incongruent
185,13,2,2,43,1,2,1,0.45419,0,Incongruent
186,13,2,2,44,2,0,1,0.40959,0,Congruent
187,13,2,2,45,1,1,1,0.40662,0,Neutral
188,13,2,2,46,2,1,0,0.41821,0,Neutral
189,13,2,2,47,1,0,1,0.47016,0,Congruent
190,13,2,2,48,2,2,1,0.42327,0,Incongruent
191,13,2,2,49,2,2,0,0.28057,0,Incongruent
193,13,2,2,51,1,1,1,0.46182,0,Neutral
194,13,2,2,52,2,0,1,0.38916999999999996,0,Congruent
195,13,2,2,53,2,0,1,0.32847,0,Congruent
196,13,2,2,54,2,1,0,0.47491000000000005,0,Neutral
197,13,2,2,55,2,1,1,0.68807,0,Neutral
198,13,2,2,56,2,0,1,0.40385,0,Congruent
199,13,2,2,57,1,1,1,0.43888999999999995,0,Neutral
